# Results on Thursday December 20 2018 22:01:57 UTC.,,,,,,,,,,,,,
# USER AGENT: Mozilla/5.0 (Windows NT 6.3; Win64; x64) AppleWebKit/537.36 (KHTML, like Gecko) Chrome/71.0.3578.80 Safari/537.36,,,,,,,,,,,,
# Design number was non-random = 293,,,,,,,,,,,,,
#,,,,,,,,,,,,,
# Columns below this comment are as follows:,,,,,,,,,,,,,
# 1. Time results were received.,,,,,,,,,,,,,
# 2. MD5 hash of participant's IP address.,,,,,,,,,,,,,
# 3. Controller name.,,,,,,,,,,,,,
# 4. Item number.,,,,,,,,,,,,,
# 5. Element number.,,,,,,,,,,,,,
# 6. Type.,,,,,,,,,,,,,
# 7. Group.,,,,,,,,,,,,,
# 8. Field name.,,,,,,,,,,,,,
# 9. Field value.,,,,,,,,,,,,,
1545343317,b516f0ae9825deaddb28e81e1441f763,FormC,1,0,inst,NULL,other_reason,,,,,,
1545343317,b516f0ae9825deaddb28e81e1441f763,FormC,1,0,inst,NULL,Color,5,,,,,
1545343317,b516f0ae9825deaddb28e81e1441f763,FormC,1,0,inst,NULL,Language,Yes,,,,,
1545343317,b516f0ae9825deaddb28e81e1441f763,FormC,1,0,inst,NULL,Age,30-49,,,,,
1545343317,b516f0ae9825deaddb28e81e1441f763,FormC,1,0,inst,NULL,Gender,Female,,,,,
1545343317,b516f0ae9825deaddb28e81e1441f763,FormC,1,0,inst,NULL,Education,Ed2,,,,,
1545343317,b516f0ae9825deaddb28e81e1441f763,FormC,1,0,inst,NULL,Occupation,O5,,,,,
1545343317,b516f0ae9825deaddb28e81e1441f763,FormC,1,0,inst,NULL,_REACTION_TIME_,46106,,,,,
1545343317,b516f0ae9825deaddb28e81e1441f763,FormC,2,0,inst,NULL,_REACTION_TIME_,7333,,,,,
1545343317,b516f0ae9825deaddb28e81e1441f763,Form,15,0,introTraining.P,NULL,_REACTION_TIME_,6168,,,,,
# Columns below this comment are as follows:,,,,,,,,,,,,,
# 1. Time results were received.,,,,,,,,,,,,,
# 2. MD5 hash of participant's IP address.,,,,,,,,,,,,,
# 3. Controller name.,,,,,,,,,,,,,
# 4. Item number.,,,,,,,,,,,,,
# 5. Element number.,,,,,,,,,,,,,
# 6. Type.,,,,,,,,,,,,,
# 7. Group.,,,,,,,,,,,,,
# 8. Field name.,,,,,,,,,,,,,
# 9. Field value.,,,,,,,,,,,,,
# 10. Field text.,,,,,,,,,,,,,
# 11. Field correct text.,,,,,,,,,,,,,
# 12. Field correct.,,,,,,,,,,,,,
# 13. Html.,,,,,,,,,,,,,
# 14. Timeout.,,,,,,,,,,,,,
1545343317,b516f0ae9825deaddb28e81e1441f763,FormC,3,0,training.P,NULL,who,Cube*,Cube group,Cube group,TRUE,train-p.html,FALSE
1545343317,b516f0ae9825deaddb28e81e1441f763,FormC,3,0,training.P,NULL,what,hotel*,hotel,hotel,TRUE,train-p.html,FALSE
1545343317,b516f0ae9825deaddb28e81e1441f763,FormC,3,0,training.P,NULL,where,Gibbonland*,Gibbonland,Gibbonland,TRUE,train-p.html,FALSE
1545343317,b516f0ae9825deaddb28e81e1441f763,FormC,3,0,training.P,NULL,month,January*,January,January,TRUE,train-p.html,FALSE
1545343317,b516f0ae9825deaddb28e81e1441f763,FormC,3,0,training.P,NULL,day,1*,1,1,TRUE,train-p.html,FALSE
1545343317,b516f0ae9825deaddb28e81e1441f763,FormC,3,0,training.P,NULL,time,11:00*,11:00,11:00,TRUE,train-p.html,FALSE
1545343317,b516f0ae9825deaddb28e81e1441f763,FormC,3,0,training.P,NULL,ampm,PM*,PM,PM,TRUE,train-p.html,FALSE
# Columns below this comment are as follows:,,,,,,,,,,,,,
# 1. Time results were received.,,,,,,,,,,,,,
# 2. MD5 hash of participant's IP address.,,,,,,,,,,,,,
# 3. Controller name.,,,,,,,,,,,,,
# 4. Item number.,,,,,,,,,,,,,
# 5. Element number.,,,,,,,,,,,,,
# 6. Type.,,,,,,,,,,,,,
# 7. Group.,,,,,,,,,,,,,
# 8. Field name.,,,,,,,,,,,,,
# 9. Field value.,,,,,,,,,,,,,
1545343317,b516f0ae9825deaddb28e81e1441f763,FormC,3,0,training.P,NULL,_REACTION_TIME_,44937,,,,,
1545343317,b516f0ae9825deaddb28e81e1441f763,Form,5,0,afterScen,NULL,_REACTION_TIME_,7425,,,,,
1545343317,b516f0ae9825deaddb28e81e1441f763,Form,16,0,introTraining.M,NULL,_REACTION_TIME_,4729,,,,,
# Columns below this comment are as follows:,,,,,,,,,,,,,
# 1. Time results were received.,,,,,,,,,,,,,
# 2. MD5 hash of participant's IP address.,,,,,,,,,,,,,
# 3. Controller name.,,,,,,,,,,,,,
# 4. Item number.,,,,,,,,,,,,,
# 5. Element number.,,,,,,,,,,,,,
# 6. Type.,,,,,,,,,,,,,
# 7. Group.,,,,,,,,,,,,,
# 8. Field name.,,,,,,,,,,,,,
# 9. Field value.,,,,,,,,,,,,,
# 10. Field text.,,,,,,,,,,,,,
# 11. Field correct text.,,,,,,,,,,,,,
# 12. Field correct.,,,,,,,,,,,,,
# 13. Html.,,,,,,,,,,,,,
# 14. Timeout.,,,,,,,,,,,,,
1545343317,b516f0ae9825deaddb28e81e1441f763,FormC,4,0,training.M,NULL,who,Tetrahedron*,Tetrahedron group,Tetrahedron group,TRUE,train-m.html,FALSE
1545343317,b516f0ae9825deaddb28e81e1441f763,FormC,4,0,training.M,NULL,what,military-base*,military base,military base,TRUE,train-m.html,FALSE
1545343317,b516f0ae9825deaddb28e81e1441f763,FormC,4,0,training.M,NULL,where,Lemurland*,Lemurland,Lemurland,TRUE,train-m.html,FALSE
1545343317,b516f0ae9825deaddb28e81e1441f763,FormC,4,0,training.M,NULL,month,March*,March,March,TRUE,train-m.html,FALSE
1545343317,b516f0ae9825deaddb28e81e1441f763,FormC,4,0,training.M,NULL,day,1*,1,1,TRUE,train-m.html,FALSE
1545343317,b516f0ae9825deaddb28e81e1441f763,FormC,4,0,training.M,NULL,time,3:00*,3:00,3:00,TRUE,train-m.html,FALSE
1545343317,b516f0ae9825deaddb28e81e1441f763,FormC,4,0,training.M,NULL,ampm,AM*,AM,AM,TRUE,train-m.html,FALSE
# Columns below this comment are as follows:,,,,,,,,,,,,,
# 1. Time results were received.,,,,,,,,,,,,,
# 2. MD5 hash of participant's IP address.,,,,,,,,,,,,,
# 3. Controller name.,,,,,,,,,,,,,
# 4. Item number.,,,,,,,,,,,,,
# 5. Element number.,,,,,,,,,,,,,
# 6. Type.,,,,,,,,,,,,,
# 7. Group.,,,,,,,,,,,,,
# 8. Field name.,,,,,,,,,,,,,
# 9. Field value.,,,,,,,,,,,,,
1545343317,b516f0ae9825deaddb28e81e1441f763,FormC,4,0,training.M,NULL,_REACTION_TIME_,52773,,,,,
1545343317,b516f0ae9825deaddb28e81e1441f763,Form,5,0,afterScen,NULL,_REACTION_TIME_,4036,,,,,
1545343317,b516f0ae9825deaddb28e81e1441f763,FormC,6,0,trust-pre,NULL,1,6,,,,,
1545343317,b516f0ae9825deaddb28e81e1441f763,FormC,6,0,trust-pre,NULL,2,1,,,,,
1545343317,b516f0ae9825deaddb28e81e1441f763,FormC,6,0,trust-pre,NULL,3,1,,,,,
1545343317,b516f0ae9825deaddb28e81e1441f763,FormC,6,0,trust-pre,NULL,4,1,,,,,
1545343317,b516f0ae9825deaddb28e81e1441f763,FormC,6,0,trust-pre,NULL,5,1,,,,,
1545343317,b516f0ae9825deaddb28e81e1441f763,FormC,6,0,trust-pre,NULL,6,6,,,,,
1545343317,b516f0ae9825deaddb28e81e1441f763,FormC,6,0,trust-pre,NULL,7,4,,,,,
1545343317,b516f0ae9825deaddb28e81e1441f763,FormC,6,0,trust-pre,NULL,8,4,,,,,
1545343317,b516f0ae9825deaddb28e81e1441f763,FormC,6,0,trust-pre,NULL,9,6,,,,,
1545343317,b516f0ae9825deaddb28e81e1441f763,FormC,6,0,trust-pre,NULL,10,6,,,,,
1545343317,b516f0ae9825deaddb28e81e1441f763,FormC,6,0,trust-pre,NULL,11,6,,,,,
1545343317,b516f0ae9825deaddb28e81e1441f763,FormC,6,0,trust-pre,NULL,12,4,,,,,
1545343317,b516f0ae9825deaddb28e81e1441f763,FormC,6,0,trust-pre,NULL,_REACTION_TIME_,26337,,,,,
1545343317,b516f0ae9825deaddb28e81e1441f763,Form,17,0,introTest,NULL,_REACTION_TIME_,9767,,,,,
# Columns below this comment are as follows:,,,,,,,,,,,,,
# 1. Time results were received.,,,,,,,,,,,,,
# 2. MD5 hash of participant's IP address.,,,,,,,,,,,,,
# 3. Controller name.,,,,,,,,,,,,,
# 4. Item number.,,,,,,,,,,,,,
# 5. Element number.,,,,,,,,,,,,,
# 6. Type.,,,,,,,,,,,,,
# 7. Group.,,,,,,,,,,,,,
# 8. Field name.,,,,,,,,,,,,,
# 9. Field value.,,,,,,,,,,,,,
# 10. Field text.,,,,,,,,,,,,,
# 11. Field correct text.,,,,,,,,,,,,,
# 12. Field correct.,,,,,,,,,,,,,
# 13. Html.,,,,,,,,,,,,,
# 14. Timeout.,,,,,,,,,,,,,
1545343317,b516f0ae9825deaddb28e81e1441f763,FormC,12,0,testing,p,who,Silver*,Silver group,Silver group,TRUE,scen4-p.html,FALSE
1545343317,b516f0ae9825deaddb28e81e1441f763,FormC,12,0,testing,p,what,secular-school*,a secular school,a secular school,TRUE,scen4-p.html,FALSE
1545343317,b516f0ae9825deaddb28e81e1441f763,FormC,12,0,testing,p,where,Sigmaland,Sigmaland,Omicronland,FALSE,scen4-p.html,FALSE
1545343317,b516f0ae9825deaddb28e81e1441f763,FormC,12,0,testing,p,month,January*,January,January,TRUE,scen4-p.html,FALSE
1545343317,b516f0ae9825deaddb28e81e1441f763,FormC,12,0,testing,p,day,1*,1,1,TRUE,scen4-p.html,FALSE
1545343317,b516f0ae9825deaddb28e81e1441f763,FormC,12,0,testing,p,time,9:00*,9:00,9:00,TRUE,scen4-p.html,FALSE
1545343317,b516f0ae9825deaddb28e81e1441f763,FormC,12,0,testing,p,ampm,AM*,AM,AM,TRUE,scen4-p.html,FALSE
# Columns below this comment are as follows:,,,,,,,,,,,,,
# 1. Time results were received.,,,,,,,,,,,,,
# 2. MD5 hash of participant's IP address.,,,,,,,,,,,,,
# 3. Controller name.,,,,,,,,,,,,,
# 4. Item number.,,,,,,,,,,,,,
# 5. Element number.,,,,,,,,,,,,,
# 6. Type.,,,,,,,,,,,,,
# 7. Group.,,,,,,,,,,,,,
# 8. Field name.,,,,,,,,,,,,,
# 9. Field value.,,,,,,,,,,,,,
1545343317,b516f0ae9825deaddb28e81e1441f763,FormC,12,0,testing,p,_REACTION_TIME_,224150,,,,,
1545343317,b516f0ae9825deaddb28e81e1441f763,Form,5,0,afterScen,NULL,_REACTION_TIME_,3799,,,,,
1545343317,b516f0ae9825deaddb28e81e1441f763,Form,18,0,betweenTest,NULL,_REACTION_TIME_,1022,,,,,
# Columns below this comment are as follows:,,,,,,,,,,,,,
# 1. Time results were received.,,,,,,,,,,,,,
# 2. MD5 hash of participant's IP address.,,,,,,,,,,,,,
# 3. Controller name.,,,,,,,,,,,,,
# 4. Item number.,,,,,,,,,,,,,
# 5. Element number.,,,,,,,,,,,,,
# 6. Type.,,,,,,,,,,,,,
# 7. Group.,,,,,,,,,,,,,
# 8. Field name.,,,,,,,,,,,,,
# 9. Field value.,,,,,,,,,,,,,
# 10. Field text.,,,,,,,,,,,,,
# 11. Field correct text.,,,,,,,,,,,,,
# 12. Field correct.,,,,,,,,,,,,,
# 13. Html.,,,,,,,,,,,,,
# 14. Timeout.,,,,,,,,,,,,,
1545343317,b516f0ae9825deaddb28e81e1441f763,FormC,13,0,testing,p,who,Violet*,Violet group,Violet group,TRUE,scen1-p.html,FALSE
1545343317,b516f0ae9825deaddb28e81e1441f763,FormC,13,0,testing,p,what,dignitary-visiting,visiting dignitary,financial institution,FALSE,scen1-p.html,FALSE
1545343317,b516f0ae9825deaddb28e81e1441f763,FormC,13,0,testing,p,where,Psiland*,Psiland,Psiland,TRUE,scen1-p.html,FALSE
1545343317,b516f0ae9825deaddb28e81e1441f763,FormC,13,0,testing,p,month,April*,April,April,TRUE,scen1-p.html,FALSE
1545343317,b516f0ae9825deaddb28e81e1441f763,FormC,13,0,testing,p,day,5*,5,5,TRUE,scen1-p.html,FALSE
1545343317,b516f0ae9825deaddb28e81e1441f763,FormC,13,0,testing,p,time,11:00*,11:00,11:00,TRUE,scen1-p.html,FALSE
1545343317,b516f0ae9825deaddb28e81e1441f763,FormC,13,0,testing,p,ampm,AM*,AM,AM,TRUE,scen1-p.html,FALSE
# Columns below this comment are as follows:,,,,,,,,,,,,,
# 1. Time results were received.,,,,,,,,,,,,,
# 2. MD5 hash of participant's IP address.,,,,,,,,,,,,,
# 3. Controller name.,,,,,,,,,,,,,
# 4. Item number.,,,,,,,,,,,,,
# 5. Element number.,,,,,,,,,,,,,
# 6. Type.,,,,,,,,,,,,,
# 7. Group.,,,,,,,,,,,,,
# 8. Field name.,,,,,,,,,,,,,
# 9. Field value.,,,,,,,,,,,,,
1545343317,b516f0ae9825deaddb28e81e1441f763,FormC,13,0,testing,p,_REACTION_TIME_,170444,,,,,
1545343317,b516f0ae9825deaddb28e81e1441f763,Form,5,0,afterScen,NULL,_REACTION_TIME_,2881,,,,,
1545343317,b516f0ae9825deaddb28e81e1441f763,FormC,14,0,trust-post,p,1,1,,,,,
1545343317,b516f0ae9825deaddb28e81e1441f763,FormC,14,0,trust-post,p,2,1,,,,,
1545343317,b516f0ae9825deaddb28e81e1441f763,FormC,14,0,trust-post,p,3,1,,,,,
1545343317,b516f0ae9825deaddb28e81e1441f763,FormC,14,0,trust-post,p,4,1,,,,,
1545343317,b516f0ae9825deaddb28e81e1441f763,FormC,14,0,trust-post,p,5,1,,,,,
1545343317,b516f0ae9825deaddb28e81e1441f763,FormC,14,0,trust-post,p,6,5,,,,,
1545343317,b516f0ae9825deaddb28e81e1441f763,FormC,14,0,trust-post,p,7,5,,,,,
1545343317,b516f0ae9825deaddb28e81e1441f763,FormC,14,0,trust-post,p,8,5,,,,,
1545343317,b516f0ae9825deaddb28e81e1441f763,FormC,14,0,trust-post,p,9,5,,,,,
1545343317,b516f0ae9825deaddb28e81e1441f763,FormC,14,0,trust-post,p,10,5,,,,,
1545343317,b516f0ae9825deaddb28e81e1441f763,FormC,14,0,trust-post,p,11,5,,,,,
1545343317,b516f0ae9825deaddb28e81e1441f763,FormC,14,0,trust-post,p,12,5,,,,,
1545343317,b516f0ae9825deaddb28e81e1441f763,FormC,14,0,trust-post,p,_REACTION_TIME_,23186,,,,,
1545343317,b516f0ae9825deaddb28e81e1441f763,Form,7,0,comments,NULL,comments,i just read all the available information and put together an educated guess,,,,,
1545343317,b516f0ae9825deaddb28e81e1441f763,Form,7,0,comments,NULL,notes,No,,,,,
1545343317,b516f0ae9825deaddb28e81e1441f763,Form,7,0,comments,NULL,_REACTION_TIME_,25099,,,,,
1545343317,b516f0ae9825deaddb28e81e1441f763,Form,21,0,end.b,NULL,mental,16,,,,,
1545343317,b516f0ae9825deaddb28e81e1441f763,Form,21,0,end.b,NULL,physical,1,,,,,
1545343317,b516f0ae9825deaddb28e81e1441f763,Form,21,0,end.b,NULL,temp,1,,,,,
1545343317,b516f0ae9825deaddb28e81e1441f763,Form,21,0,end.b,NULL,success,5,,,,,
1545343317,b516f0ae9825deaddb28e81e1441f763,Form,21,0,end.b,NULL,perf,19,,,,,
1545343317,b516f0ae9825deaddb28e81e1441f763,Form,21,0,end.b,NULL,stress,3,,,,,
1545343317,b516f0ae9825deaddb28e81e1441f763,Form,21,0,end.b,NULL,preference,1,,,,,
1545343317,b516f0ae9825deaddb28e81e1441f763,Form,21,0,end.b,NULL,_REACTION_TIME_,31616,,,,,
1545343317,b516f0ae9825deaddb28e81e1441f763,FormC,8,0,pilot,NULL,pilotQ1,no ,,,,,
1545343317,b516f0ae9825deaddb28e81e1441f763,FormC,8,0,pilot,NULL,_REACTION_TIME_,4914,,,,,
#,,,,,,,,,,,,,
# Results on Thursday December 20 2018 22:44:05 UTC.,,,,,,,,,,,,,
# USER AGENT: Mozilla/5.0 (Windows NT 10.0; Win64; x64) AppleWebKit/537.36 (KHTML, like Gecko) Chrome/71.0.3578.98 Safari/537.36,,,,,,,,,,,,
# Design number was non-random = 296,,,,,,,,,,,,,
#,,,,,,,,,,,,,
# Columns below this comment are as follows:,,,,,,,,,,,,,
# 1. Time results were received.,,,,,,,,,,,,,
# 2. MD5 hash of participant's IP address.,,,,,,,,,,,,,
# 3. Controller name.,,,,,,,,,,,,,
# 4. Item number.,,,,,,,,,,,,,
# 5. Element number.,,,,,,,,,,,,,
# 6. Type.,,,,,,,,,,,,,
# 7. Group.,,,,,,,,,,,,,
# 8. Field name.,,,,,,,,,,,,,
# 9. Field value.,,,,,,,,,,,,,
1545345846,10ef1f9e89fcca3c34efbc20ace9f3fd,FormC,1,0,inst,NULL,other_reason,Architecture,,,,,
1545345846,10ef1f9e89fcca3c34efbc20ace9f3fd,FormC,1,0,inst,NULL,Color,4,,,,,
1545345846,10ef1f9e89fcca3c34efbc20ace9f3fd,FormC,1,0,inst,NULL,Language,Yes,,,,,
1545345846,10ef1f9e89fcca3c34efbc20ace9f3fd,FormC,1,0,inst,NULL,Age,18-29,,,,,
1545345846,10ef1f9e89fcca3c34efbc20ace9f3fd,FormC,1,0,inst,NULL,Gender,Female,,,,,
1545345846,10ef1f9e89fcca3c34efbc20ace9f3fd,FormC,1,0,inst,NULL,Education,Ed2,,,,,
1545345846,10ef1f9e89fcca3c34efbc20ace9f3fd,FormC,1,0,inst,NULL,Occupation,O13,,,,,
1545345846,10ef1f9e89fcca3c34efbc20ace9f3fd,FormC,1,0,inst,NULL,_REACTION_TIME_,48125,,,,,
1545345846,10ef1f9e89fcca3c34efbc20ace9f3fd,FormC,2,0,inst,NULL,_REACTION_TIME_,108468,,,,,
1545345846,10ef1f9e89fcca3c34efbc20ace9f3fd,Form,15,0,introTraining.P,NULL,_REACTION_TIME_,1717,,,,,
# Columns below this comment are as follows:,,,,,,,,,,,,,
# 1. Time results were received.,,,,,,,,,,,,,
# 2. MD5 hash of participant's IP address.,,,,,,,,,,,,,
# 3. Controller name.,,,,,,,,,,,,,
# 4. Item number.,,,,,,,,,,,,,
# 5. Element number.,,,,,,,,,,,,,
# 6. Type.,,,,,,,,,,,,,
# 7. Group.,,,,,,,,,,,,,
# 8. Field name.,,,,,,,,,,,,,
# 9. Field value.,,,,,,,,,,,,,
# 10. Field text.,,,,,,,,,,,,,
# 11. Field correct text.,,,,,,,,,,,,,
# 12. Field correct.,,,,,,,,,,,,,
# 13. Html.,,,,,,,,,,,,,
# 14. Timeout.,,,,,,,,,,,,,
1545345846,10ef1f9e89fcca3c34efbc20ace9f3fd,FormC,3,0,training.P,NULL,who,Cube*,Cube group,Cube group,TRUE,train-p.html,FALSE
1545345846,10ef1f9e89fcca3c34efbc20ace9f3fd,FormC,3,0,training.P,NULL,what,hotel*,hotel,hotel,TRUE,train-p.html,FALSE
1545345846,10ef1f9e89fcca3c34efbc20ace9f3fd,FormC,3,0,training.P,NULL,where,Gibbonland*,Gibbonland,Gibbonland,TRUE,train-p.html,FALSE
1545345846,10ef1f9e89fcca3c34efbc20ace9f3fd,FormC,3,0,training.P,NULL,month,January*,January,January,TRUE,train-p.html,FALSE
1545345846,10ef1f9e89fcca3c34efbc20ace9f3fd,FormC,3,0,training.P,NULL,day,1*,1,1,TRUE,train-p.html,FALSE
1545345846,10ef1f9e89fcca3c34efbc20ace9f3fd,FormC,3,0,training.P,NULL,time,11:00*,11:00,11:00,TRUE,train-p.html,FALSE
1545345846,10ef1f9e89fcca3c34efbc20ace9f3fd,FormC,3,0,training.P,NULL,ampm,PM*,PM,PM,TRUE,train-p.html,FALSE
# Columns below this comment are as follows:,,,,,,,,,,,,,
# 1. Time results were received.,,,,,,,,,,,,,
# 2. MD5 hash of participant's IP address.,,,,,,,,,,,,,
# 3. Controller name.,,,,,,,,,,,,,
# 4. Item number.,,,,,,,,,,,,,
# 5. Element number.,,,,,,,,,,,,,
# 6. Type.,,,,,,,,,,,,,
# 7. Group.,,,,,,,,,,,,,
# 8. Field name.,,,,,,,,,,,,,
# 9. Field value.,,,,,,,,,,,,,
1545345846,10ef1f9e89fcca3c34efbc20ace9f3fd,FormC,3,0,training.P,NULL,_REACTION_TIME_,62725,,,,,
1545345846,10ef1f9e89fcca3c34efbc20ace9f3fd,Form,5,0,afterScen,NULL,_REACTION_TIME_,4435,,,,,
1545345846,10ef1f9e89fcca3c34efbc20ace9f3fd,Form,16,0,introTraining.M,NULL,_REACTION_TIME_,3638,,,,,
# Columns below this comment are as follows:,,,,,,,,,,,,,
# 1. Time results were received.,,,,,,,,,,,,,
# 2. MD5 hash of participant's IP address.,,,,,,,,,,,,,
# 3. Controller name.,,,,,,,,,,,,,
# 4. Item number.,,,,,,,,,,,,,
# 5. Element number.,,,,,,,,,,,,,
# 6. Type.,,,,,,,,,,,,,
# 7. Group.,,,,,,,,,,,,,
# 8. Field name.,,,,,,,,,,,,,
# 9. Field value.,,,,,,,,,,,,,
# 10. Field text.,,,,,,,,,,,,,
# 11. Field correct text.,,,,,,,,,,,,,
# 12. Field correct.,,,,,,,,,,,,,
# 13. Html.,,,,,,,,,,,,,
# 14. Timeout.,,,,,,,,,,,,,
1545345846,10ef1f9e89fcca3c34efbc20ace9f3fd,FormC,4,0,training.M,NULL,who,Tetrahedron*,Tetrahedron group,Tetrahedron group,TRUE,train-m.html,FALSE
1545345846,10ef1f9e89fcca3c34efbc20ace9f3fd,FormC,4,0,training.M,NULL,what,military-base*,military base,military base,TRUE,train-m.html,FALSE
1545345846,10ef1f9e89fcca3c34efbc20ace9f3fd,FormC,4,0,training.M,NULL,where,Lemurland*,Lemurland,Lemurland,TRUE,train-m.html,FALSE
1545345846,10ef1f9e89fcca3c34efbc20ace9f3fd,FormC,4,0,training.M,NULL,month,March*,March,March,TRUE,train-m.html,FALSE
1545345846,10ef1f9e89fcca3c34efbc20ace9f3fd,FormC,4,0,training.M,NULL,day,1*,1,1,TRUE,train-m.html,FALSE
1545345846,10ef1f9e89fcca3c34efbc20ace9f3fd,FormC,4,0,training.M,NULL,time,3:00*,3:00,3:00,TRUE,train-m.html,FALSE
1545345846,10ef1f9e89fcca3c34efbc20ace9f3fd,FormC,4,0,training.M,NULL,ampm,PM,PM,AM,FALSE,train-m.html,FALSE
# Columns below this comment are as follows:,,,,,,,,,,,,,
# 1. Time results were received.,,,,,,,,,,,,,
# 2. MD5 hash of participant's IP address.,,,,,,,,,,,,,
# 3. Controller name.,,,,,,,,,,,,,
# 4. Item number.,,,,,,,,,,,,,
# 5. Element number.,,,,,,,,,,,,,
# 6. Type.,,,,,,,,,,,,,
# 7. Group.,,,,,,,,,,,,,
# 8. Field name.,,,,,,,,,,,,,
# 9. Field value.,,,,,,,,,,,,,
1545345846,10ef1f9e89fcca3c34efbc20ace9f3fd,FormC,4,0,training.M,NULL,_REACTION_TIME_,48401,,,,,
1545345846,10ef1f9e89fcca3c34efbc20ace9f3fd,Form,5,0,afterScen,NULL,_REACTION_TIME_,3909,,,,,
1545345846,10ef1f9e89fcca3c34efbc20ace9f3fd,FormC,6,0,trust-pre,NULL,1,2,,,,,
1545345846,10ef1f9e89fcca3c34efbc20ace9f3fd,FormC,6,0,trust-pre,NULL,2,2,,,,,
1545345846,10ef1f9e89fcca3c34efbc20ace9f3fd,FormC,6,0,trust-pre,NULL,3,2,,,,,
1545345846,10ef1f9e89fcca3c34efbc20ace9f3fd,FormC,6,0,trust-pre,NULL,4,2,,,,,
1545345846,10ef1f9e89fcca3c34efbc20ace9f3fd,FormC,6,0,trust-pre,NULL,5,2,,,,,
1545345846,10ef1f9e89fcca3c34efbc20ace9f3fd,FormC,6,0,trust-pre,NULL,6,4,,,,,
1545345846,10ef1f9e89fcca3c34efbc20ace9f3fd,FormC,6,0,trust-pre,NULL,7,4,,,,,
1545345846,10ef1f9e89fcca3c34efbc20ace9f3fd,FormC,6,0,trust-pre,NULL,8,4,,,,,
1545345846,10ef1f9e89fcca3c34efbc20ace9f3fd,FormC,6,0,trust-pre,NULL,9,4,,,,,
1545345846,10ef1f9e89fcca3c34efbc20ace9f3fd,FormC,6,0,trust-pre,NULL,10,4,,,,,
1545345846,10ef1f9e89fcca3c34efbc20ace9f3fd,FormC,6,0,trust-pre,NULL,11,4,,,,,
1545345846,10ef1f9e89fcca3c34efbc20ace9f3fd,FormC,6,0,trust-pre,NULL,12,5,,,,,
1545345846,10ef1f9e89fcca3c34efbc20ace9f3fd,FormC,6,0,trust-pre,NULL,_REACTION_TIME_,24492,,,,,
1545345846,10ef1f9e89fcca3c34efbc20ace9f3fd,Form,17,0,introTest,NULL,_REACTION_TIME_,27340,,,,,
# Columns below this comment are as follows:,,,,,,,,,,,,,
# 1. Time results were received.,,,,,,,,,,,,,
# 2. MD5 hash of participant's IP address.,,,,,,,,,,,,,
# 3. Controller name.,,,,,,,,,,,,,
# 4. Item number.,,,,,,,,,,,,,
# 5. Element number.,,,,,,,,,,,,,
# 6. Type.,,,,,,,,,,,,,
# 7. Group.,,,,,,,,,,,,,
# 8. Field name.,,,,,,,,,,,,,
# 9. Field value.,,,,,,,,,,,,,
# 10. Field text.,,,,,,,,,,,,,
# 11. Field correct text.,,,,,,,,,,,,,
# 12. Field correct.,,,,,,,,,,,,,
# 13. Html.,,,,,,,,,,,,,
# 14. Timeout.,,,,,,,,,,,,,
1545345846,10ef1f9e89fcca3c34efbc20ace9f3fd,FormC,9,0,testing,m,who,Silver*,Silver group,Silver group,TRUE,scen4-m.html,FALSE
1545345846,10ef1f9e89fcca3c34efbc20ace9f3fd,FormC,9,0,testing,m,what,religious-school,a religious school,a secular school,FALSE,scen4-m.html,FALSE
1545345846,10ef1f9e89fcca3c34efbc20ace9f3fd,FormC,9,0,testing,m,where,Omicronland*,Omicronland,Omicronland,TRUE,scen4-m.html,FALSE
1545345846,10ef1f9e89fcca3c34efbc20ace9f3fd,FormC,9,0,testing,m,month,January*,January,January,TRUE,scen4-m.html,FALSE
1545345846,10ef1f9e89fcca3c34efbc20ace9f3fd,FormC,9,0,testing,m,day,1*,1,1,TRUE,scen4-m.html,FALSE
1545345846,10ef1f9e89fcca3c34efbc20ace9f3fd,FormC,9,0,testing,m,time,9:00*,9:00,9:00,TRUE,scen4-m.html,FALSE
1545345846,10ef1f9e89fcca3c34efbc20ace9f3fd,FormC,9,0,testing,m,ampm,AM*,AM,AM,TRUE,scen4-m.html,FALSE
# Columns below this comment are as follows:,,,,,,,,,,,,,
# 1. Time results were received.,,,,,,,,,,,,,
# 2. MD5 hash of participant's IP address.,,,,,,,,,,,,,
# 3. Controller name.,,,,,,,,,,,,,
# 4. Item number.,,,,,,,,,,,,,
# 5. Element number.,,,,,,,,,,,,,
# 6. Type.,,,,,,,,,,,,,
# 7. Group.,,,,,,,,,,,,,
# 8. Field name.,,,,,,,,,,,,,
# 9. Field value.,,,,,,,,,,,,,
1545345846,10ef1f9e89fcca3c34efbc20ace9f3fd,FormC,9,0,testing,m,_REACTION_TIME_,267935,,,,,
1545345846,10ef1f9e89fcca3c34efbc20ace9f3fd,Form,5,0,afterScen,NULL,_REACTION_TIME_,3867,,,,,
1545345846,10ef1f9e89fcca3c34efbc20ace9f3fd,Form,18,0,betweenTest,NULL,_REACTION_TIME_,1837,,,,,
# Columns below this comment are as follows:,,,,,,,,,,,,,
# 1. Time results were received.,,,,,,,,,,,,,
# 2. MD5 hash of participant's IP address.,,,,,,,,,,,,,
# 3. Controller name.,,,,,,,,,,,,,
# 4. Item number.,,,,,,,,,,,,,
# 5. Element number.,,,,,,,,,,,,,
# 6. Type.,,,,,,,,,,,,,
# 7. Group.,,,,,,,,,,,,,
# 8. Field name.,,,,,,,,,,,,,
# 9. Field value.,,,,,,,,,,,,,
# 10. Field text.,,,,,,,,,,,,,
# 11. Field correct text.,,,,,,,,,,,,,
# 12. Field correct.,,,,,,,,,,,,,
# 13. Html.,,,,,,,,,,,,,
# 14. Timeout.,,,,,,,,,,,,,
1545345846,10ef1f9e89fcca3c34efbc20ace9f3fd,FormC,10,0,testing,m,who,Violet*,Violet group,Violet group,TRUE,scen1-m.html,FALSE
1545345846,10ef1f9e89fcca3c34efbc20ace9f3fd,FormC,10,0,testing,m,what,financial-institution*,financial institution,financial institution,TRUE,scen1-m.html,FALSE
1545345846,10ef1f9e89fcca3c34efbc20ace9f3fd,FormC,10,0,testing,m,where,Psiland*,Psiland,Psiland,TRUE,scen1-m.html,FALSE
1545345846,10ef1f9e89fcca3c34efbc20ace9f3fd,FormC,10,0,testing,m,month,April*,April,April,TRUE,scen1-m.html,FALSE
1545345846,10ef1f9e89fcca3c34efbc20ace9f3fd,FormC,10,0,testing,m,day,5*,5,5,TRUE,scen1-m.html,FALSE
1545345846,10ef1f9e89fcca3c34efbc20ace9f3fd,FormC,10,0,testing,m,time,11:00*,11:00,11:00,TRUE,scen1-m.html,FALSE
1545345846,10ef1f9e89fcca3c34efbc20ace9f3fd,FormC,10,0,testing,m,ampm,AM*,AM,AM,TRUE,scen1-m.html,FALSE
# Columns below this comment are as follows:,,,,,,,,,,,,,
# 1. Time results were received.,,,,,,,,,,,,,
# 2. MD5 hash of participant's IP address.,,,,,,,,,,,,,
# 3. Controller name.,,,,,,,,,,,,,
# 4. Item number.,,,,,,,,,,,,,
# 5. Element number.,,,,,,,,,,,,,
# 6. Type.,,,,,,,,,,,,,
# 7. Group.,,,,,,,,,,,,,
# 8. Field name.,,,,,,,,,,,,,
# 9. Field value.,,,,,,,,,,,,,
1545345846,10ef1f9e89fcca3c34efbc20ace9f3fd,FormC,10,0,testing,m,_REACTION_TIME_,207503,,,,,
1545345846,10ef1f9e89fcca3c34efbc20ace9f3fd,Form,5,0,afterScen,NULL,_REACTION_TIME_,2854,,,,,
1545345846,10ef1f9e89fcca3c34efbc20ace9f3fd,FormC,11,0,trust-post,m,1,1,,,,,
1545345846,10ef1f9e89fcca3c34efbc20ace9f3fd,FormC,11,0,trust-post,m,2,1,,,,,
1545345846,10ef1f9e89fcca3c34efbc20ace9f3fd,FormC,11,0,trust-post,m,3,1,,,,,
1545345846,10ef1f9e89fcca3c34efbc20ace9f3fd,FormC,11,0,trust-post,m,4,1,,,,,
1545345846,10ef1f9e89fcca3c34efbc20ace9f3fd,FormC,11,0,trust-post,m,5,1,,,,,
1545345846,10ef1f9e89fcca3c34efbc20ace9f3fd,FormC,11,0,trust-post,m,6,7,,,,,
1545345846,10ef1f9e89fcca3c34efbc20ace9f3fd,FormC,11,0,trust-post,m,7,7,,,,,
1545345846,10ef1f9e89fcca3c34efbc20ace9f3fd,FormC,11,0,trust-post,m,8,7,,,,,
1545345846,10ef1f9e89fcca3c34efbc20ace9f3fd,FormC,11,0,trust-post,m,9,7,,,,,
1545345846,10ef1f9e89fcca3c34efbc20ace9f3fd,FormC,11,0,trust-post,m,10,7,,,,,
1545345846,10ef1f9e89fcca3c34efbc20ace9f3fd,FormC,11,0,trust-post,m,11,7,,,,,
1545345846,10ef1f9e89fcca3c34efbc20ace9f3fd,FormC,11,0,trust-post,m,12,7,,,,,
1545345846,10ef1f9e89fcca3c34efbc20ace9f3fd,FormC,11,0,trust-post,m,_REACTION_TIME_,20368,,,,,
1545345846,10ef1f9e89fcca3c34efbc20ace9f3fd,Form,7,0,comments,NULL,comments,I would start off with the When. Once you know who operates day or night%2C you can narrow things down. Simply eliminating things as I went along after figuring out when the attack would happen. It was really easy.,,,,,
1545345846,10ef1f9e89fcca3c34efbc20ace9f3fd,Form,7,0,comments,NULL,notes,No,,,,,
1545345846,10ef1f9e89fcca3c34efbc20ace9f3fd,Form,7,0,comments,NULL,_REACTION_TIME_,88210,,,,,
1545345846,10ef1f9e89fcca3c34efbc20ace9f3fd,Form,21,0,end.a,NULL,mental,2,,,,,
1545345846,10ef1f9e89fcca3c34efbc20ace9f3fd,Form,21,0,end.a,NULL,physical,1,,,,,
1545345846,10ef1f9e89fcca3c34efbc20ace9f3fd,Form,21,0,end.a,NULL,temp,1,,,,,
1545345846,10ef1f9e89fcca3c34efbc20ace9f3fd,Form,21,0,end.a,NULL,success,2,,,,,
1545345846,10ef1f9e89fcca3c34efbc20ace9f3fd,Form,21,0,end.a,NULL,perf,13,,,,,
1545345846,10ef1f9e89fcca3c34efbc20ace9f3fd,Form,21,0,end.a,NULL,stress,1,,,,,
1545345846,10ef1f9e89fcca3c34efbc20ace9f3fd,Form,21,0,end.a,NULL,preference,21,,,,,
1545345846,10ef1f9e89fcca3c34efbc20ace9f3fd,Form,21,0,end.a,NULL,_REACTION_TIME_,21538,,,,,
1545345846,10ef1f9e89fcca3c34efbc20ace9f3fd,FormC,8,0,pilot,NULL,pilotQ1,It was fun and super easy.,,,,,
1545345846,10ef1f9e89fcca3c34efbc20ace9f3fd,FormC,8,0,pilot,NULL,_REACTION_TIME_,9560,,,,,
#,,,,,,,,,,,,,
# Results on Thursday December 20 2018 22:49:55 UTC.,,,,,,,,,,,,,
# USER AGENT: Mozilla/5.0 (Windows NT 10.0; Win64; x64) AppleWebKit/537.36 (KHTML, like Gecko) Chrome/71.0.3578.98 Safari/537.36,,,,,,,,,,,,
# Design number was non-random = 295,,,,,,,,,,,,,
#,,,,,,,,,,,,,
# Columns below this comment are as follows:,,,,,,,,,,,,,
# 1. Time results were received.,,,,,,,,,,,,,
# 2. MD5 hash of participant's IP address.,,,,,,,,,,,,,
# 3. Controller name.,,,,,,,,,,,,,
# 4. Item number.,,,,,,,,,,,,,
# 5. Element number.,,,,,,,,,,,,,
# 6. Type.,,,,,,,,,,,,,
# 7. Group.,,,,,,,,,,,,,
# 8. Field name.,,,,,,,,,,,,,
# 9. Field value.,,,,,,,,,,,,,
1545346195,6a4cacee8141f74a591c2714b97068f0,FormC,1,0,inst,NULL,other_reason,,,,,,
1545346195,6a4cacee8141f74a591c2714b97068f0,FormC,1,0,inst,NULL,Color,4,,,,,
1545346195,6a4cacee8141f74a591c2714b97068f0,FormC,1,0,inst,NULL,Language,Yes,,,,,
1545346195,6a4cacee8141f74a591c2714b97068f0,FormC,1,0,inst,NULL,Age,18-29,,,,,
1545346195,6a4cacee8141f74a591c2714b97068f0,FormC,1,0,inst,NULL,Gender,Female,,,,,
1545346195,6a4cacee8141f74a591c2714b97068f0,FormC,1,0,inst,NULL,Education,Ed3,,,,,
1545346195,6a4cacee8141f74a591c2714b97068f0,FormC,1,0,inst,NULL,Occupation,O1,,,,,
1545346195,6a4cacee8141f74a591c2714b97068f0,FormC,1,0,inst,NULL,_REACTION_TIME_,47156,,,,,
1545346195,6a4cacee8141f74a591c2714b97068f0,FormC,2,0,inst,NULL,_REACTION_TIME_,8419,,,,,
1545346195,6a4cacee8141f74a591c2714b97068f0,Form,15,0,introTraining.P,NULL,_REACTION_TIME_,3958,,,,,
# Columns below this comment are as follows:,,,,,,,,,,,,,
# 1. Time results were received.,,,,,,,,,,,,,
# 2. MD5 hash of participant's IP address.,,,,,,,,,,,,,
# 3. Controller name.,,,,,,,,,,,,,
# 4. Item number.,,,,,,,,,,,,,
# 5. Element number.,,,,,,,,,,,,,
# 6. Type.,,,,,,,,,,,,,
# 7. Group.,,,,,,,,,,,,,
# 8. Field name.,,,,,,,,,,,,,
# 9. Field value.,,,,,,,,,,,,,
# 10. Field text.,,,,,,,,,,,,,
# 11. Field correct text.,,,,,,,,,,,,,
# 12. Field correct.,,,,,,,,,,,,,
# 13. Html.,,,,,,,,,,,,,
# 14. Timeout.,,,,,,,,,,,,,
1545346195,6a4cacee8141f74a591c2714b97068f0,FormC,3,0,training.P,NULL,who,Cube*,Cube group,Cube group,TRUE,train-p.html,FALSE
1545346195,6a4cacee8141f74a591c2714b97068f0,FormC,3,0,training.P,NULL,what,hotel*,hotel,hotel,TRUE,train-p.html,FALSE
1545346195,6a4cacee8141f74a591c2714b97068f0,FormC,3,0,training.P,NULL,where,Gibbonland*,Gibbonland,Gibbonland,TRUE,train-p.html,FALSE
1545346195,6a4cacee8141f74a591c2714b97068f0,FormC,3,0,training.P,NULL,month,January*,January,January,TRUE,train-p.html,FALSE
1545346195,6a4cacee8141f74a591c2714b97068f0,FormC,3,0,training.P,NULL,day,1*,1,1,TRUE,train-p.html,FALSE
1545346195,6a4cacee8141f74a591c2714b97068f0,FormC,3,0,training.P,NULL,time,11:00*,11:00,11:00,TRUE,train-p.html,FALSE
1545346195,6a4cacee8141f74a591c2714b97068f0,FormC,3,0,training.P,NULL,ampm,PM*,PM,PM,TRUE,train-p.html,FALSE
# Columns below this comment are as follows:,,,,,,,,,,,,,
# 1. Time results were received.,,,,,,,,,,,,,
# 2. MD5 hash of participant's IP address.,,,,,,,,,,,,,
# 3. Controller name.,,,,,,,,,,,,,
# 4. Item number.,,,,,,,,,,,,,
# 5. Element number.,,,,,,,,,,,,,
# 6. Type.,,,,,,,,,,,,,
# 7. Group.,,,,,,,,,,,,,
# 8. Field name.,,,,,,,,,,,,,
# 9. Field value.,,,,,,,,,,,,,
1545346195,6a4cacee8141f74a591c2714b97068f0,FormC,3,0,training.P,NULL,_REACTION_TIME_,35707,,,,,
1545346195,6a4cacee8141f74a591c2714b97068f0,Form,5,0,afterScen,NULL,_REACTION_TIME_,5280,,,,,
1545346195,6a4cacee8141f74a591c2714b97068f0,Form,16,0,introTraining.M,NULL,_REACTION_TIME_,2180,,,,,
# Columns below this comment are as follows:,,,,,,,,,,,,,
# 1. Time results were received.,,,,,,,,,,,,,
# 2. MD5 hash of participant's IP address.,,,,,,,,,,,,,
# 3. Controller name.,,,,,,,,,,,,,
# 4. Item number.,,,,,,,,,,,,,
# 5. Element number.,,,,,,,,,,,,,
# 6. Type.,,,,,,,,,,,,,
# 7. Group.,,,,,,,,,,,,,
# 8. Field name.,,,,,,,,,,,,,
# 9. Field value.,,,,,,,,,,,,,
# 10. Field text.,,,,,,,,,,,,,
# 11. Field correct text.,,,,,,,,,,,,,
# 12. Field correct.,,,,,,,,,,,,,
# 13. Html.,,,,,,,,,,,,,
# 14. Timeout.,,,,,,,,,,,,,
1545346195,6a4cacee8141f74a591c2714b97068f0,FormC,4,0,training.M,NULL,who,Cube,Cube group,Tetrahedron group,FALSE,train-m.html,FALSE
1545346195,6a4cacee8141f74a591c2714b97068f0,FormC,4,0,training.M,NULL,what,military-base*,military base,military base,TRUE,train-m.html,FALSE
1545346195,6a4cacee8141f74a591c2714b97068f0,FormC,4,0,training.M,NULL,where,Lemurland*,Lemurland,Lemurland,TRUE,train-m.html,FALSE
1545346195,6a4cacee8141f74a591c2714b97068f0,FormC,4,0,training.M,NULL,month,March*,March,March,TRUE,train-m.html,FALSE
1545346195,6a4cacee8141f74a591c2714b97068f0,FormC,4,0,training.M,NULL,day,1*,1,1,TRUE,train-m.html,FALSE
1545346195,6a4cacee8141f74a591c2714b97068f0,FormC,4,0,training.M,NULL,time,3:00*,3:00,3:00,TRUE,train-m.html,FALSE
1545346195,6a4cacee8141f74a591c2714b97068f0,FormC,4,0,training.M,NULL,ampm,AM*,AM,AM,TRUE,train-m.html,FALSE
# Columns below this comment are as follows:,,,,,,,,,,,,,
# 1. Time results were received.,,,,,,,,,,,,,
# 2. MD5 hash of participant's IP address.,,,,,,,,,,,,,
# 3. Controller name.,,,,,,,,,,,,,
# 4. Item number.,,,,,,,,,,,,,
# 5. Element number.,,,,,,,,,,,,,
# 6. Type.,,,,,,,,,,,,,
# 7. Group.,,,,,,,,,,,,,
# 8. Field name.,,,,,,,,,,,,,
# 9. Field value.,,,,,,,,,,,,,
1545346195,6a4cacee8141f74a591c2714b97068f0,FormC,4,0,training.M,NULL,_REACTION_TIME_,38688,,,,,
1545346195,6a4cacee8141f74a591c2714b97068f0,Form,5,0,afterScen,NULL,_REACTION_TIME_,3092,,,,,
1545346195,6a4cacee8141f74a591c2714b97068f0,FormC,6,0,trust-pre,NULL,1,1,,,,,
1545346195,6a4cacee8141f74a591c2714b97068f0,FormC,6,0,trust-pre,NULL,2,1,,,,,
1545346195,6a4cacee8141f74a591c2714b97068f0,FormC,6,0,trust-pre,NULL,3,1,,,,,
1545346195,6a4cacee8141f74a591c2714b97068f0,FormC,6,0,trust-pre,NULL,4,1,,,,,
1545346195,6a4cacee8141f74a591c2714b97068f0,FormC,6,0,trust-pre,NULL,5,1,,,,,
1545346195,6a4cacee8141f74a591c2714b97068f0,FormC,6,0,trust-pre,NULL,6,5,,,,,
1545346195,6a4cacee8141f74a591c2714b97068f0,FormC,6,0,trust-pre,NULL,7,5,,,,,
1545346195,6a4cacee8141f74a591c2714b97068f0,FormC,6,0,trust-pre,NULL,8,5,,,,,
1545346195,6a4cacee8141f74a591c2714b97068f0,FormC,6,0,trust-pre,NULL,9,5,,,,,
1545346195,6a4cacee8141f74a591c2714b97068f0,FormC,6,0,trust-pre,NULL,10,5,,,,,
1545346195,6a4cacee8141f74a591c2714b97068f0,FormC,6,0,trust-pre,NULL,11,5,,,,,
1545346195,6a4cacee8141f74a591c2714b97068f0,FormC,6,0,trust-pre,NULL,12,5,,,,,
1545346195,6a4cacee8141f74a591c2714b97068f0,FormC,6,0,trust-pre,NULL,_REACTION_TIME_,29229,,,,,
1545346195,6a4cacee8141f74a591c2714b97068f0,Form,17,0,introTest,NULL,_REACTION_TIME_,28235,,,,,
# Columns below this comment are as follows:,,,,,,,,,,,,,
# 1. Time results were received.,,,,,,,,,,,,,
# 2. MD5 hash of participant's IP address.,,,,,,,,,,,,,
# 3. Controller name.,,,,,,,,,,,,,
# 4. Item number.,,,,,,,,,,,,,
# 5. Element number.,,,,,,,,,,,,,
# 6. Type.,,,,,,,,,,,,,
# 7. Group.,,,,,,,,,,,,,
# 8. Field name.,,,,,,,,,,,,,
# 9. Field value.,,,,,,,,,,,,,
# 10. Field text.,,,,,,,,,,,,,
# 11. Field correct text.,,,,,,,,,,,,,
# 12. Field correct.,,,,,,,,,,,,,
# 13. Html.,,,,,,,,,,,,,
# 14. Timeout.,,,,,,,,,,,,,
1545346195,6a4cacee8141f74a591c2714b97068f0,FormC,12,0,testing,p,who,Gray,Gray group,Silver group,FALSE,scen4-p.html,FALSE
1545346195,6a4cacee8141f74a591c2714b97068f0,FormC,12,0,testing,p,what,secular-school*,a secular school,a secular school,TRUE,scen4-p.html,FALSE
1545346195,6a4cacee8141f74a591c2714b97068f0,FormC,12,0,testing,p,where,Piland,Piland,Omicronland,FALSE,scen4-p.html,FALSE
1545346195,6a4cacee8141f74a591c2714b97068f0,FormC,12,0,testing,p,month,September,September,January,FALSE,scen4-p.html,FALSE
1545346195,6a4cacee8141f74a591c2714b97068f0,FormC,12,0,testing,p,day,7,7,1,FALSE,scen4-p.html,FALSE
1545346195,6a4cacee8141f74a591c2714b97068f0,FormC,12,0,testing,p,time,9:00*,9:00,9:00,TRUE,scen4-p.html,FALSE
1545346195,6a4cacee8141f74a591c2714b97068f0,FormC,12,0,testing,p,ampm,AM*,AM,AM,TRUE,scen4-p.html,FALSE
# Columns below this comment are as follows:,,,,,,,,,,,,,
# 1. Time results were received.,,,,,,,,,,,,,
# 2. MD5 hash of participant's IP address.,,,,,,,,,,,,,
# 3. Controller name.,,,,,,,,,,,,,
# 4. Item number.,,,,,,,,,,,,,
# 5. Element number.,,,,,,,,,,,,,
# 6. Type.,,,,,,,,,,,,,
# 7. Group.,,,,,,,,,,,,,
# 8. Field name.,,,,,,,,,,,,,
# 9. Field value.,,,,,,,,,,,,,
1545346195,6a4cacee8141f74a591c2714b97068f0,FormC,12,0,testing,p,_REACTION_TIME_,960161,,,,,
1545346195,6a4cacee8141f74a591c2714b97068f0,Form,5,0,afterScen,NULL,_REACTION_TIME_,3852,,,,,
1545346195,6a4cacee8141f74a591c2714b97068f0,Form,18,0,betweenTest,NULL,_REACTION_TIME_,1316,,,,,
# Columns below this comment are as follows:,,,,,,,,,,,,,
# 1. Time results were received.,,,,,,,,,,,,,
# 2. MD5 hash of participant's IP address.,,,,,,,,,,,,,
# 3. Controller name.,,,,,,,,,,,,,
# 4. Item number.,,,,,,,,,,,,,
# 5. Element number.,,,,,,,,,,,,,
# 6. Type.,,,,,,,,,,,,,
# 7. Group.,,,,,,,,,,,,,
# 8. Field name.,,,,,,,,,,,,,
# 9. Field value.,,,,,,,,,,,,,
# 10. Field text.,,,,,,,,,,,,,
# 11. Field correct text.,,,,,,,,,,,,,
# 12. Field correct.,,,,,,,,,,,,,
# 13. Html.,,,,,,,,,,,,,
# 14. Timeout.,,,,,,,,,,,,,
1545346195,6a4cacee8141f74a591c2714b97068f0,FormC,13,0,testing,p,who,Violet*,Violet group,Violet group,TRUE,scen1-p.html,FALSE
1545346195,6a4cacee8141f74a591c2714b97068f0,FormC,13,0,testing,p,what,financial-institution*,financial institution,financial institution,TRUE,scen1-p.html,FALSE
1545346195,6a4cacee8141f74a591c2714b97068f0,FormC,13,0,testing,p,where,Psiland*,Psiland,Psiland,TRUE,scen1-p.html,FALSE
1545346195,6a4cacee8141f74a591c2714b97068f0,FormC,13,0,testing,p,month,April*,April,April,TRUE,scen1-p.html,FALSE
1545346195,6a4cacee8141f74a591c2714b97068f0,FormC,13,0,testing,p,day,5*,5,5,TRUE,scen1-p.html,FALSE
1545346195,6a4cacee8141f74a591c2714b97068f0,FormC,13,0,testing,p,time,11:00*,11:00,11:00,TRUE,scen1-p.html,FALSE
1545346195,6a4cacee8141f74a591c2714b97068f0,FormC,13,0,testing,p,ampm,AM*,AM,AM,TRUE,scen1-p.html,FALSE
# Columns below this comment are as follows:,,,,,,,,,,,,,
# 1. Time results were received.,,,,,,,,,,,,,
# 2. MD5 hash of participant's IP address.,,,,,,,,,,,,,
# 3. Controller name.,,,,,,,,,,,,,
# 4. Item number.,,,,,,,,,,,,,
# 5. Element number.,,,,,,,,,,,,,
# 6. Type.,,,,,,,,,,,,,
# 7. Group.,,,,,,,,,,,,,
# 8. Field name.,,,,,,,,,,,,,
# 9. Field value.,,,,,,,,,,,,,
1545346195,6a4cacee8141f74a591c2714b97068f0,FormC,13,0,testing,p,_REACTION_TIME_,571870,,,,,
1545346195,6a4cacee8141f74a591c2714b97068f0,Form,5,0,afterScen,NULL,_REACTION_TIME_,2048,,,,,
1545346195,6a4cacee8141f74a591c2714b97068f0,FormC,14,0,trust-post,p,1,1,,,,,
1545346195,6a4cacee8141f74a591c2714b97068f0,FormC,14,0,trust-post,p,2,1,,,,,
1545346195,6a4cacee8141f74a591c2714b97068f0,FormC,14,0,trust-post,p,3,1,,,,,
1545346195,6a4cacee8141f74a591c2714b97068f0,FormC,14,0,trust-post,p,4,4,,,,,
1545346195,6a4cacee8141f74a591c2714b97068f0,FormC,14,0,trust-post,p,5,3,,,,,
1545346195,6a4cacee8141f74a591c2714b97068f0,FormC,14,0,trust-post,p,6,4,,,,,
1545346195,6a4cacee8141f74a591c2714b97068f0,FormC,14,0,trust-post,p,7,3,,,,,
1545346195,6a4cacee8141f74a591c2714b97068f0,FormC,14,0,trust-post,p,8,3,,,,,
1545346195,6a4cacee8141f74a591c2714b97068f0,FormC,14,0,trust-post,p,9,4,,,,,
1545346195,6a4cacee8141f74a591c2714b97068f0,FormC,14,0,trust-post,p,10,4,,,,,
1545346195,6a4cacee8141f74a591c2714b97068f0,FormC,14,0,trust-post,p,11,3,,,,,
1545346195,6a4cacee8141f74a591c2714b97068f0,FormC,14,0,trust-post,p,12,4,,,,,
1545346195,6a4cacee8141f74a591c2714b97068f0,FormC,14,0,trust-post,p,_REACTION_TIME_,20918,,,,,
1545346195,6a4cacee8141f74a591c2714b97068f0,Form,7,0,comments,NULL,comments,I did an elimination thing where I took out matching factors.  ,,,,,
1545346195,6a4cacee8141f74a591c2714b97068f0,Form,7,0,comments,NULL,notes,Yes,,,,,
1545346195,6a4cacee8141f74a591c2714b97068f0,Form,7,0,comments,NULL,_REACTION_TIME_,18662,,,,,
1545346195,6a4cacee8141f74a591c2714b97068f0,Form,21,0,end.b,NULL,mental,20,,,,,
1545346195,6a4cacee8141f74a591c2714b97068f0,Form,21,0,end.b,NULL,physical,1,,,,,
1545346195,6a4cacee8141f74a591c2714b97068f0,Form,21,0,end.b,NULL,temp,18,,,,,
1545346195,6a4cacee8141f74a591c2714b97068f0,Form,21,0,end.b,NULL,success,7,,,,,
1545346195,6a4cacee8141f74a591c2714b97068f0,Form,21,0,end.b,NULL,perf,19,,,,,
1545346195,6a4cacee8141f74a591c2714b97068f0,Form,21,0,end.b,NULL,stress,8,,,,,
1545346195,6a4cacee8141f74a591c2714b97068f0,Form,21,0,end.b,NULL,preference,21,,,,,
1545346195,6a4cacee8141f74a591c2714b97068f0,Form,21,0,end.b,NULL,_REACTION_TIME_,23331,,,,,
1545346195,6a4cacee8141f74a591c2714b97068f0,FormC,8,0,pilot,NULL,pilotQ1,No it was good!  I didn't do too well on the first one because I was still trying to figure out my strategy but it was really fun.,,,,,
1545346195,6a4cacee8141f74a591c2714b97068f0,FormC,8,0,pilot,NULL,_REACTION_TIME_,21040,,,,,
#,,,,,,,,,,,,,
# Results on Thursday December 20 2018 23:11:39 UTC.,,,,,,,,,,,,,
# USER AGENT: Mozilla/5.0 (Windows NT 6.1; Win64; x64; rv:64.0) Gecko/20100101 Firefox/64.0,,,,,,,,,,,,,
# Design number was non-random = 298,,,,,,,,,,,,,
#,,,,,,,,,,,,,
# Columns below this comment are as follows:,,,,,,,,,,,,,
# 1. Time results were received.,,,,,,,,,,,,,
# 2. MD5 hash of participant's IP address.,,,,,,,,,,,,,
# 3. Controller name.,,,,,,,,,,,,,
# 4. Item number.,,,,,,,,,,,,,
# 5. Element number.,,,,,,,,,,,,,
# 6. Type.,,,,,,,,,,,,,
# 7. Group.,,,,,,,,,,,,,
# 8. Field name.,,,,,,,,,,,,,
# 9. Field value.,,,,,,,,,,,,,
1545347499,f024e515188e2c6879ee9216c3c57f0b,FormC,1,0,inst,NULL,other_reason,,,,,,
1545347499,f024e515188e2c6879ee9216c3c57f0b,FormC,1,0,inst,NULL,Color,4,,,,,
1545347499,f024e515188e2c6879ee9216c3c57f0b,FormC,1,0,inst,NULL,Language,Yes,,,,,
1545347499,f024e515188e2c6879ee9216c3c57f0b,FormC,1,0,inst,NULL,Age,30-49,,,,,
1545347499,f024e515188e2c6879ee9216c3c57f0b,FormC,1,0,inst,NULL,Gender,Female,,,,,
1545347499,f024e515188e2c6879ee9216c3c57f0b,FormC,1,0,inst,NULL,Education,Ed2,,,,,
1545347499,f024e515188e2c6879ee9216c3c57f0b,FormC,1,0,inst,NULL,Occupation,O2,,,,,
1545347499,f024e515188e2c6879ee9216c3c57f0b,FormC,1,0,inst,NULL,_REACTION_TIME_,34469,,,,,
1545347499,f024e515188e2c6879ee9216c3c57f0b,FormC,2,0,inst,NULL,_REACTION_TIME_,15257,,,,,
1545347499,f024e515188e2c6879ee9216c3c57f0b,Form,15,0,introTraining.P,NULL,_REACTION_TIME_,4408,,,,,
# Columns below this comment are as follows:,,,,,,,,,,,,,
# 1. Time results were received.,,,,,,,,,,,,,
# 2. MD5 hash of participant's IP address.,,,,,,,,,,,,,
# 3. Controller name.,,,,,,,,,,,,,
# 4. Item number.,,,,,,,,,,,,,
# 5. Element number.,,,,,,,,,,,,,
# 6. Type.,,,,,,,,,,,,,
# 7. Group.,,,,,,,,,,,,,
# 8. Field name.,,,,,,,,,,,,,
# 9. Field value.,,,,,,,,,,,,,
# 10. Field text.,,,,,,,,,,,,,
# 11. Field correct text.,,,,,,,,,,,,,
# 12. Field correct.,,,,,,,,,,,,,
# 13. Html.,,,,,,,,,,,,,
# 14. Timeout.,,,,,,,,,,,,,
1545347499,f024e515188e2c6879ee9216c3c57f0b,FormC,3,0,training.P,NULL,who,Cube*,Cube group,Cube group,TRUE,train-p.html,FALSE
1545347499,f024e515188e2c6879ee9216c3c57f0b,FormC,3,0,training.P,NULL,what,hotel*,hotel,hotel,TRUE,train-p.html,FALSE
1545347499,f024e515188e2c6879ee9216c3c57f0b,FormC,3,0,training.P,NULL,where,Gibbonland*,Gibbonland,Gibbonland,TRUE,train-p.html,FALSE
1545347499,f024e515188e2c6879ee9216c3c57f0b,FormC,3,0,training.P,NULL,month,January*,January,January,TRUE,train-p.html,FALSE
1545347499,f024e515188e2c6879ee9216c3c57f0b,FormC,3,0,training.P,NULL,day,1*,1,1,TRUE,train-p.html,FALSE
1545347499,f024e515188e2c6879ee9216c3c57f0b,FormC,3,0,training.P,NULL,time,11:00*,11:00,11:00,TRUE,train-p.html,FALSE
1545347499,f024e515188e2c6879ee9216c3c57f0b,FormC,3,0,training.P,NULL,ampm,PM*,PM,PM,TRUE,train-p.html,FALSE
# Columns below this comment are as follows:,,,,,,,,,,,,,
# 1. Time results were received.,,,,,,,,,,,,,
# 2. MD5 hash of participant's IP address.,,,,,,,,,,,,,
# 3. Controller name.,,,,,,,,,,,,,
# 4. Item number.,,,,,,,,,,,,,
# 5. Element number.,,,,,,,,,,,,,
# 6. Type.,,,,,,,,,,,,,
# 7. Group.,,,,,,,,,,,,,
# 8. Field name.,,,,,,,,,,,,,
# 9. Field value.,,,,,,,,,,,,,
1545347499,f024e515188e2c6879ee9216c3c57f0b,FormC,3,0,training.P,NULL,_REACTION_TIME_,43042,,,,,
1545347499,f024e515188e2c6879ee9216c3c57f0b,Form,5,0,afterScen,NULL,_REACTION_TIME_,4400,,,,,
1545347499,f024e515188e2c6879ee9216c3c57f0b,Form,16,0,introTraining.M,NULL,_REACTION_TIME_,4407,,,,,
# Columns below this comment are as follows:,,,,,,,,,,,,,
# 1. Time results were received.,,,,,,,,,,,,,
# 2. MD5 hash of participant's IP address.,,,,,,,,,,,,,
# 3. Controller name.,,,,,,,,,,,,,
# 4. Item number.,,,,,,,,,,,,,
# 5. Element number.,,,,,,,,,,,,,
# 6. Type.,,,,,,,,,,,,,
# 7. Group.,,,,,,,,,,,,,
# 8. Field name.,,,,,,,,,,,,,
# 9. Field value.,,,,,,,,,,,,,
# 10. Field text.,,,,,,,,,,,,,
# 11. Field correct text.,,,,,,,,,,,,,
# 12. Field correct.,,,,,,,,,,,,,
# 13. Html.,,,,,,,,,,,,,
# 14. Timeout.,,,,,,,,,,,,,
1545347499,f024e515188e2c6879ee9216c3c57f0b,FormC,4,0,training.M,NULL,who,Tetrahedron*,Tetrahedron group,Tetrahedron group,TRUE,train-m.html,FALSE
1545347499,f024e515188e2c6879ee9216c3c57f0b,FormC,4,0,training.M,NULL,what,military-base*,military base,military base,TRUE,train-m.html,FALSE
1545347499,f024e515188e2c6879ee9216c3c57f0b,FormC,4,0,training.M,NULL,where,Lemurland*,Lemurland,Lemurland,TRUE,train-m.html,FALSE
1545347499,f024e515188e2c6879ee9216c3c57f0b,FormC,4,0,training.M,NULL,month,March*,March,March,TRUE,train-m.html,FALSE
1545347499,f024e515188e2c6879ee9216c3c57f0b,FormC,4,0,training.M,NULL,day,1*,1,1,TRUE,train-m.html,FALSE
1545347499,f024e515188e2c6879ee9216c3c57f0b,FormC,4,0,training.M,NULL,time,3:00*,3:00,3:00,TRUE,train-m.html,FALSE
1545347499,f024e515188e2c6879ee9216c3c57f0b,FormC,4,0,training.M,NULL,ampm,AM*,AM,AM,TRUE,train-m.html,FALSE
# Columns below this comment are as follows:,,,,,,,,,,,,,
# 1. Time results were received.,,,,,,,,,,,,,
# 2. MD5 hash of participant's IP address.,,,,,,,,,,,,,
# 3. Controller name.,,,,,,,,,,,,,
# 4. Item number.,,,,,,,,,,,,,
# 5. Element number.,,,,,,,,,,,,,
# 6. Type.,,,,,,,,,,,,,
# 7. Group.,,,,,,,,,,,,,
# 8. Field name.,,,,,,,,,,,,,
# 9. Field value.,,,,,,,,,,,,,
1545347499,f024e515188e2c6879ee9216c3c57f0b,FormC,4,0,training.M,NULL,_REACTION_TIME_,43346,,,,,
1545347499,f024e515188e2c6879ee9216c3c57f0b,Form,5,0,afterScen,NULL,_REACTION_TIME_,2353,,,,,
1545347499,f024e515188e2c6879ee9216c3c57f0b,FormC,6,0,trust-pre,NULL,1,1,,,,,
1545347499,f024e515188e2c6879ee9216c3c57f0b,FormC,6,0,trust-pre,NULL,2,1,,,,,
1545347499,f024e515188e2c6879ee9216c3c57f0b,FormC,6,0,trust-pre,NULL,3,2,,,,,
1545347499,f024e515188e2c6879ee9216c3c57f0b,FormC,6,0,trust-pre,NULL,4,3,,,,,
1545347499,f024e515188e2c6879ee9216c3c57f0b,FormC,6,0,trust-pre,NULL,5,3,,,,,
1545347499,f024e515188e2c6879ee9216c3c57f0b,FormC,6,0,trust-pre,NULL,6,2,,,,,
1545347499,f024e515188e2c6879ee9216c3c57f0b,FormC,6,0,trust-pre,NULL,7,4,,,,,
1545347499,f024e515188e2c6879ee9216c3c57f0b,FormC,6,0,trust-pre,NULL,8,1,,,,,
1545347499,f024e515188e2c6879ee9216c3c57f0b,FormC,6,0,trust-pre,NULL,9,2,,,,,
1545347499,f024e515188e2c6879ee9216c3c57f0b,FormC,6,0,trust-pre,NULL,10,2,,,,,
1545347499,f024e515188e2c6879ee9216c3c57f0b,FormC,6,0,trust-pre,NULL,11,2,,,,,
1545347499,f024e515188e2c6879ee9216c3c57f0b,FormC,6,0,trust-pre,NULL,12,1,,,,,
1545347499,f024e515188e2c6879ee9216c3c57f0b,FormC,6,0,trust-pre,NULL,_REACTION_TIME_,71256,,,,,
1545347499,f024e515188e2c6879ee9216c3c57f0b,Form,17,0,introTest,NULL,_REACTION_TIME_,7137,,,,,
# Columns below this comment are as follows:,,,,,,,,,,,,,
# 1. Time results were received.,,,,,,,,,,,,,
# 2. MD5 hash of participant's IP address.,,,,,,,,,,,,,
# 3. Controller name.,,,,,,,,,,,,,
# 4. Item number.,,,,,,,,,,,,,
# 5. Element number.,,,,,,,,,,,,,
# 6. Type.,,,,,,,,,,,,,
# 7. Group.,,,,,,,,,,,,,
# 8. Field name.,,,,,,,,,,,,,
# 9. Field value.,,,,,,,,,,,,,
# 10. Field text.,,,,,,,,,,,,,
# 11. Field correct text.,,,,,,,,,,,,,
# 12. Field correct.,,,,,,,,,,,,,
# 13. Html.,,,,,,,,,,,,,
# 14. Timeout.,,,,,,,,,,,,,
1545347499,f024e515188e2c6879ee9216c3c57f0b,FormC,12,0,testing,p,who,Rose,Rose group,Silver group,FALSE,scen4-p.html,FALSE
1545347499,f024e515188e2c6879ee9216c3c57f0b,FormC,12,0,testing,p,what,military-base,a military base,a secular school,FALSE,scen4-p.html,FALSE
1545347499,f024e515188e2c6879ee9216c3c57f0b,FormC,12,0,testing,p,where,Piland,Piland,Omicronland,FALSE,scen4-p.html,FALSE
1545347499,f024e515188e2c6879ee9216c3c57f0b,FormC,12,0,testing,p,month,January*,January,January,TRUE,scen4-p.html,FALSE
1545347499,f024e515188e2c6879ee9216c3c57f0b,FormC,12,0,testing,p,day,1*,1,1,TRUE,scen4-p.html,FALSE
1545347499,f024e515188e2c6879ee9216c3c57f0b,FormC,12,0,testing,p,time,9:00*,9:00,9:00,TRUE,scen4-p.html,FALSE
1545347499,f024e515188e2c6879ee9216c3c57f0b,FormC,12,0,testing,p,ampm,AM*,AM,AM,TRUE,scen4-p.html,FALSE
# Columns below this comment are as follows:,,,,,,,,,,,,,
# 1. Time results were received.,,,,,,,,,,,,,
# 2. MD5 hash of participant's IP address.,,,,,,,,,,,,,
# 3. Controller name.,,,,,,,,,,,,,
# 4. Item number.,,,,,,,,,,,,,
# 5. Element number.,,,,,,,,,,,,,
# 6. Type.,,,,,,,,,,,,,
# 7. Group.,,,,,,,,,,,,,
# 8. Field name.,,,,,,,,,,,,,
# 9. Field value.,,,,,,,,,,,,,
1545347499,f024e515188e2c6879ee9216c3c57f0b,FormC,12,0,testing,p,_REACTION_TIME_,330352,,,,,
1545347499,f024e515188e2c6879ee9216c3c57f0b,Form,5,0,afterScen,NULL,_REACTION_TIME_,6335,,,,,
1545347499,f024e515188e2c6879ee9216c3c57f0b,Form,18,0,betweenTest,NULL,_REACTION_TIME_,1905,,,,,
# Columns below this comment are as follows:,,,,,,,,,,,,,
# 1. Time results were received.,,,,,,,,,,,,,
# 2. MD5 hash of participant's IP address.,,,,,,,,,,,,,
# 3. Controller name.,,,,,,,,,,,,,
# 4. Item number.,,,,,,,,,,,,,
# 5. Element number.,,,,,,,,,,,,,
# 6. Type.,,,,,,,,,,,,,
# 7. Group.,,,,,,,,,,,,,
# 8. Field name.,,,,,,,,,,,,,
# 9. Field value.,,,,,,,,,,,,,
# 10. Field text.,,,,,,,,,,,,,
# 11. Field correct text.,,,,,,,,,,,,,
# 12. Field correct.,,,,,,,,,,,,,
# 13. Html.,,,,,,,,,,,,,
# 14. Timeout.,,,,,,,,,,,,,
1545347499,f024e515188e2c6879ee9216c3c57f0b,FormC,13,0,testing,p,who,Violet*,Violet group,Violet group,TRUE,scen1-p.html,FALSE
1545347499,f024e515188e2c6879ee9216c3c57f0b,FormC,13,0,testing,p,what,financial-institution*,financial institution,financial institution,TRUE,scen1-p.html,FALSE
1545347499,f024e515188e2c6879ee9216c3c57f0b,FormC,13,0,testing,p,where,Psiland*,Psiland,Psiland,TRUE,scen1-p.html,FALSE
1545347499,f024e515188e2c6879ee9216c3c57f0b,FormC,13,0,testing,p,month,April*,April,April,TRUE,scen1-p.html,FALSE
1545347499,f024e515188e2c6879ee9216c3c57f0b,FormC,13,0,testing,p,day,5*,5,5,TRUE,scen1-p.html,FALSE
1545347499,f024e515188e2c6879ee9216c3c57f0b,FormC,13,0,testing,p,time,11:00*,11:00,11:00,TRUE,scen1-p.html,FALSE
1545347499,f024e515188e2c6879ee9216c3c57f0b,FormC,13,0,testing,p,ampm,AM*,AM,AM,TRUE,scen1-p.html,FALSE
# Columns below this comment are as follows:,,,,,,,,,,,,,
# 1. Time results were received.,,,,,,,,,,,,,
# 2. MD5 hash of participant's IP address.,,,,,,,,,,,,,
# 3. Controller name.,,,,,,,,,,,,,
# 4. Item number.,,,,,,,,,,,,,
# 5. Element number.,,,,,,,,,,,,,
# 6. Type.,,,,,,,,,,,,,
# 7. Group.,,,,,,,,,,,,,
# 8. Field name.,,,,,,,,,,,,,
# 9. Field value.,,,,,,,,,,,,,
1545347499,f024e515188e2c6879ee9216c3c57f0b,FormC,13,0,testing,p,_REACTION_TIME_,327410,,,,,
1545347499,f024e515188e2c6879ee9216c3c57f0b,Form,5,0,afterScen,NULL,_REACTION_TIME_,3260,,,,,
1545347499,f024e515188e2c6879ee9216c3c57f0b,FormC,14,0,trust-post,p,1,1,,,,,
1545347499,f024e515188e2c6879ee9216c3c57f0b,FormC,14,0,trust-post,p,2,1,,,,,
1545347499,f024e515188e2c6879ee9216c3c57f0b,FormC,14,0,trust-post,p,3,1,,,,,
1545347499,f024e515188e2c6879ee9216c3c57f0b,FormC,14,0,trust-post,p,4,1,,,,,
1545347499,f024e515188e2c6879ee9216c3c57f0b,FormC,14,0,trust-post,p,5,2,,,,,
1545347499,f024e515188e2c6879ee9216c3c57f0b,FormC,14,0,trust-post,p,6,2,,,,,
1545347499,f024e515188e2c6879ee9216c3c57f0b,FormC,14,0,trust-post,p,7,2,,,,,
1545347499,f024e515188e2c6879ee9216c3c57f0b,FormC,14,0,trust-post,p,8,1,,,,,
1545347499,f024e515188e2c6879ee9216c3c57f0b,FormC,14,0,trust-post,p,9,1,,,,,
1545347499,f024e515188e2c6879ee9216c3c57f0b,FormC,14,0,trust-post,p,10,2,,,,,
1545347499,f024e515188e2c6879ee9216c3c57f0b,FormC,14,0,trust-post,p,11,1,,,,,
1545347499,f024e515188e2c6879ee9216c3c57f0b,FormC,14,0,trust-post,p,12,2,,,,,
1545347499,f024e515188e2c6879ee9216c3c57f0b,FormC,14,0,trust-post,p,_REACTION_TIME_,25530,,,,,
1545347499,f024e515188e2c6879ee9216c3c57f0b,Form,7,0,comments,NULL,comments,The first one seemed more difficult%2C but the second time around I got them all right simply by process of elimination and looking at all factors.,,,,,
1545347499,f024e515188e2c6879ee9216c3c57f0b,Form,7,0,comments,NULL,notes,No,,,,,
1545347499,f024e515188e2c6879ee9216c3c57f0b,Form,7,0,comments,NULL,_REACTION_TIME_,38243,,,,,
1545347499,f024e515188e2c6879ee9216c3c57f0b,Form,21,0,end.a,NULL,mental,19,,,,,
1545347499,f024e515188e2c6879ee9216c3c57f0b,Form,21,0,end.a,NULL,physical,1,,,,,
1545347499,f024e515188e2c6879ee9216c3c57f0b,Form,21,0,end.a,NULL,temp,1,,,,,
1545347499,f024e515188e2c6879ee9216c3c57f0b,Form,21,0,end.a,NULL,success,11,,,,,
1545347499,f024e515188e2c6879ee9216c3c57f0b,Form,21,0,end.a,NULL,perf,17,,,,,
1545347499,f024e515188e2c6879ee9216c3c57f0b,Form,21,0,end.a,NULL,stress,1,,,,,
1545347499,f024e515188e2c6879ee9216c3c57f0b,Form,21,0,end.a,NULL,preference,18,,,,,
1545347499,f024e515188e2c6879ee9216c3c57f0b,Form,21,0,end.a,NULL,_REACTION_TIME_,30608,,,,,
1545347499,f024e515188e2c6879ee9216c3c57f0b,FormC,8,0,pilot,NULL,pilotQ1,nothing was confusing,,,,,
1545347499,f024e515188e2c6879ee9216c3c57f0b,FormC,8,0,pilot,NULL,_REACTION_TIME_,11102,,,,,
#,,,,,,,,,,,,,
# Results on Thursday December 20 2018 23:13:41 UTC.,,,,,,,,,,,,,
# USER AGENT: Mozilla/5.0 (Windows NT 6.1; Win64; x64) AppleWebKit/537.36 (KHTML, like Gecko) Chrome/71.0.3578.98 Safari/537.36,,,,,,,,,,,,
# Design number was non-random = 299,,,,,,,,,,,,,
#,,,,,,,,,,,,,
# Columns below this comment are as follows:,,,,,,,,,,,,,
# 1. Time results were received.,,,,,,,,,,,,,
# 2. MD5 hash of participant's IP address.,,,,,,,,,,,,,
# 3. Controller name.,,,,,,,,,,,,,
# 4. Item number.,,,,,,,,,,,,,
# 5. Element number.,,,,,,,,,,,,,
# 6. Type.,,,,,,,,,,,,,
# 7. Group.,,,,,,,,,,,,,
# 8. Field name.,,,,,,,,,,,,,
# 9. Field value.,,,,,,,,,,,,,
1545347622,01c91f83402fdada3377e414372c5c7d,FormC,1,0,inst,NULL,other_reason,Online Freelancer,,,,,
1545347622,01c91f83402fdada3377e414372c5c7d,FormC,1,0,inst,NULL,Color,4,,,,,
1545347622,01c91f83402fdada3377e414372c5c7d,FormC,1,0,inst,NULL,Language,Yes,,,,,
1545347622,01c91f83402fdada3377e414372c5c7d,FormC,1,0,inst,NULL,Age,18-29,,,,,
1545347622,01c91f83402fdada3377e414372c5c7d,FormC,1,0,inst,NULL,Gender,Male,,,,,
1545347622,01c91f83402fdada3377e414372c5c7d,FormC,1,0,inst,NULL,Education,Ed1,,,,,
1545347622,01c91f83402fdada3377e414372c5c7d,FormC,1,0,inst,NULL,Occupation,O13,,,,,
1545347622,01c91f83402fdada3377e414372c5c7d,FormC,1,0,inst,NULL,_REACTION_TIME_,73944,,,,,
1545347622,01c91f83402fdada3377e414372c5c7d,FormC,2,0,inst,NULL,_REACTION_TIME_,41734,,,,,
1545347622,01c91f83402fdada3377e414372c5c7d,Form,15,0,introTraining.P,NULL,_REACTION_TIME_,3385,,,,,
# Columns below this comment are as follows:,,,,,,,,,,,,,
# 1. Time results were received.,,,,,,,,,,,,,
# 2. MD5 hash of participant's IP address.,,,,,,,,,,,,,
# 3. Controller name.,,,,,,,,,,,,,
# 4. Item number.,,,,,,,,,,,,,
# 5. Element number.,,,,,,,,,,,,,
# 6. Type.,,,,,,,,,,,,,
# 7. Group.,,,,,,,,,,,,,
# 8. Field name.,,,,,,,,,,,,,
# 9. Field value.,,,,,,,,,,,,,
# 10. Field text.,,,,,,,,,,,,,
# 11. Field correct text.,,,,,,,,,,,,,
# 12. Field correct.,,,,,,,,,,,,,
# 13. Html.,,,,,,,,,,,,,
# 14. Timeout.,,,,,,,,,,,,,
1545347622,01c91f83402fdada3377e414372c5c7d,FormC,3,0,training.P,NULL,who,Cube*,Cube group,Cube group,TRUE,train-p.html,FALSE
1545347622,01c91f83402fdada3377e414372c5c7d,FormC,3,0,training.P,NULL,what,hotel*,hotel,hotel,TRUE,train-p.html,FALSE
1545347622,01c91f83402fdada3377e414372c5c7d,FormC,3,0,training.P,NULL,where,Gibbonland*,Gibbonland,Gibbonland,TRUE,train-p.html,FALSE
1545347622,01c91f83402fdada3377e414372c5c7d,FormC,3,0,training.P,NULL,month,January*,January,January,TRUE,train-p.html,FALSE
1545347622,01c91f83402fdada3377e414372c5c7d,FormC,3,0,training.P,NULL,day,1*,1,1,TRUE,train-p.html,FALSE
1545347622,01c91f83402fdada3377e414372c5c7d,FormC,3,0,training.P,NULL,time,11:00*,11:00,11:00,TRUE,train-p.html,FALSE
1545347622,01c91f83402fdada3377e414372c5c7d,FormC,3,0,training.P,NULL,ampm,PM*,PM,PM,TRUE,train-p.html,FALSE
# Columns below this comment are as follows:,,,,,,,,,,,,,
# 1. Time results were received.,,,,,,,,,,,,,
# 2. MD5 hash of participant's IP address.,,,,,,,,,,,,,
# 3. Controller name.,,,,,,,,,,,,,
# 4. Item number.,,,,,,,,,,,,,
# 5. Element number.,,,,,,,,,,,,,
# 6. Type.,,,,,,,,,,,,,
# 7. Group.,,,,,,,,,,,,,
# 8. Field name.,,,,,,,,,,,,,
# 9. Field value.,,,,,,,,,,,,,
1545347622,01c91f83402fdada3377e414372c5c7d,FormC,3,0,training.P,NULL,_REACTION_TIME_,64407,,,,,
1545347622,01c91f83402fdada3377e414372c5c7d,Form,5,0,afterScen,NULL,_REACTION_TIME_,6491,,,,,
1545347622,01c91f83402fdada3377e414372c5c7d,Form,16,0,introTraining.M,NULL,_REACTION_TIME_,2547,,,,,
# Columns below this comment are as follows:,,,,,,,,,,,,,
# 1. Time results were received.,,,,,,,,,,,,,
# 2. MD5 hash of participant's IP address.,,,,,,,,,,,,,
# 3. Controller name.,,,,,,,,,,,,,
# 4. Item number.,,,,,,,,,,,,,
# 5. Element number.,,,,,,,,,,,,,
# 6. Type.,,,,,,,,,,,,,
# 7. Group.,,,,,,,,,,,,,
# 8. Field name.,,,,,,,,,,,,,
# 9. Field value.,,,,,,,,,,,,,
# 10. Field text.,,,,,,,,,,,,,
# 11. Field correct text.,,,,,,,,,,,,,
# 12. Field correct.,,,,,,,,,,,,,
# 13. Html.,,,,,,,,,,,,,
# 14. Timeout.,,,,,,,,,,,,,
1545347622,01c91f83402fdada3377e414372c5c7d,FormC,4,0,training.M,NULL,who,Tetrahedron*,Tetrahedron group,Tetrahedron group,TRUE,train-m.html,FALSE
1545347622,01c91f83402fdada3377e414372c5c7d,FormC,4,0,training.M,NULL,what,military-base*,military base,military base,TRUE,train-m.html,FALSE
1545347622,01c91f83402fdada3377e414372c5c7d,FormC,4,0,training.M,NULL,where,Lemurland*,Lemurland,Lemurland,TRUE,train-m.html,FALSE
1545347622,01c91f83402fdada3377e414372c5c7d,FormC,4,0,training.M,NULL,month,March*,March,March,TRUE,train-m.html,FALSE
1545347622,01c91f83402fdada3377e414372c5c7d,FormC,4,0,training.M,NULL,day,1*,1,1,TRUE,train-m.html,FALSE
1545347622,01c91f83402fdada3377e414372c5c7d,FormC,4,0,training.M,NULL,time,3:00*,3:00,3:00,TRUE,train-m.html,FALSE
1545347622,01c91f83402fdada3377e414372c5c7d,FormC,4,0,training.M,NULL,ampm,AM*,AM,AM,TRUE,train-m.html,FALSE
# Columns below this comment are as follows:,,,,,,,,,,,,,
# 1. Time results were received.,,,,,,,,,,,,,
# 2. MD5 hash of participant's IP address.,,,,,,,,,,,,,
# 3. Controller name.,,,,,,,,,,,,,
# 4. Item number.,,,,,,,,,,,,,
# 5. Element number.,,,,,,,,,,,,,
# 6. Type.,,,,,,,,,,,,,
# 7. Group.,,,,,,,,,,,,,
# 8. Field name.,,,,,,,,,,,,,
# 9. Field value.,,,,,,,,,,,,,
1545347622,01c91f83402fdada3377e414372c5c7d,FormC,4,0,training.M,NULL,_REACTION_TIME_,62583,,,,,
1545347622,01c91f83402fdada3377e414372c5c7d,Form,5,0,afterScen,NULL,_REACTION_TIME_,3190,,,,,
1545347622,01c91f83402fdada3377e414372c5c7d,FormC,6,0,trust-pre,NULL,1,1,,,,,
1545347622,01c91f83402fdada3377e414372c5c7d,FormC,6,0,trust-pre,NULL,2,2,,,,,
1545347622,01c91f83402fdada3377e414372c5c7d,FormC,6,0,trust-pre,NULL,3,2,,,,,
1545347622,01c91f83402fdada3377e414372c5c7d,FormC,6,0,trust-pre,NULL,4,2,,,,,
1545347622,01c91f83402fdada3377e414372c5c7d,FormC,6,0,trust-pre,NULL,5,2,,,,,
1545347622,01c91f83402fdada3377e414372c5c7d,FormC,6,0,trust-pre,NULL,6,7,,,,,
1545347622,01c91f83402fdada3377e414372c5c7d,FormC,6,0,trust-pre,NULL,7,7,,,,,
1545347622,01c91f83402fdada3377e414372c5c7d,FormC,6,0,trust-pre,NULL,8,7,,,,,
1545347622,01c91f83402fdada3377e414372c5c7d,FormC,6,0,trust-pre,NULL,9,7,,,,,
1545347622,01c91f83402fdada3377e414372c5c7d,FormC,6,0,trust-pre,NULL,10,7,,,,,
1545347622,01c91f83402fdada3377e414372c5c7d,FormC,6,0,trust-pre,NULL,11,7,,,,,
1545347622,01c91f83402fdada3377e414372c5c7d,FormC,6,0,trust-pre,NULL,12,4,,,,,
1545347622,01c91f83402fdada3377e414372c5c7d,FormC,6,0,trust-pre,NULL,_REACTION_TIME_,28380,,,,,
1545347622,01c91f83402fdada3377e414372c5c7d,Form,17,0,introTest,NULL,_REACTION_TIME_,10804,,,,,
# Columns below this comment are as follows:,,,,,,,,,,,,,
# 1. Time results were received.,,,,,,,,,,,,,
# 2. MD5 hash of participant's IP address.,,,,,,,,,,,,,
# 3. Controller name.,,,,,,,,,,,,,
# 4. Item number.,,,,,,,,,,,,,
# 5. Element number.,,,,,,,,,,,,,
# 6. Type.,,,,,,,,,,,,,
# 7. Group.,,,,,,,,,,,,,
# 8. Field name.,,,,,,,,,,,,,
# 9. Field value.,,,,,,,,,,,,,
# 10. Field text.,,,,,,,,,,,,,
# 11. Field correct text.,,,,,,,,,,,,,
# 12. Field correct.,,,,,,,,,,,,,
# 13. Html.,,,,,,,,,,,,,
# 14. Timeout.,,,,,,,,,,,,,
1545347622,01c91f83402fdada3377e414372c5c7d,FormC,12,0,testing,p,who,Gray,Gray group,Silver group,FALSE,scen4-p.html,FALSE
1545347622,01c91f83402fdada3377e414372c5c7d,FormC,12,0,testing,p,what,religious-school,a religious school,a secular school,FALSE,scen4-p.html,FALSE
1545347622,01c91f83402fdada3377e414372c5c7d,FormC,12,0,testing,p,where,Xiland,Xiland,Omicronland,FALSE,scen4-p.html,FALSE
1545347622,01c91f83402fdada3377e414372c5c7d,FormC,12,0,testing,p,month,June,June,January,FALSE,scen4-p.html,FALSE
1545347622,01c91f83402fdada3377e414372c5c7d,FormC,12,0,testing,p,day,1*,1,1,TRUE,scen4-p.html,FALSE
1545347622,01c91f83402fdada3377e414372c5c7d,FormC,12,0,testing,p,time,9:00*,9:00,9:00,TRUE,scen4-p.html,FALSE
1545347622,01c91f83402fdada3377e414372c5c7d,FormC,12,0,testing,p,ampm,AM*,AM,AM,TRUE,scen4-p.html,FALSE
# Columns below this comment are as follows:,,,,,,,,,,,,,
# 1. Time results were received.,,,,,,,,,,,,,
# 2. MD5 hash of participant's IP address.,,,,,,,,,,,,,
# 3. Controller name.,,,,,,,,,,,,,
# 4. Item number.,,,,,,,,,,,,,
# 5. Element number.,,,,,,,,,,,,,
# 6. Type.,,,,,,,,,,,,,
# 7. Group.,,,,,,,,,,,,,
# 8. Field name.,,,,,,,,,,,,,
# 9. Field value.,,,,,,,,,,,,,
1545347622,01c91f83402fdada3377e414372c5c7d,FormC,12,0,testing,p,_REACTION_TIME_,299990,,,,,
1545347622,01c91f83402fdada3377e414372c5c7d,Form,5,0,afterScen,NULL,_REACTION_TIME_,3901,,,,,
1545347622,01c91f83402fdada3377e414372c5c7d,Form,18,0,betweenTest,NULL,_REACTION_TIME_,958,,,,,
# Columns below this comment are as follows:,,,,,,,,,,,,,
# 1. Time results were received.,,,,,,,,,,,,,
# 2. MD5 hash of participant's IP address.,,,,,,,,,,,,,
# 3. Controller name.,,,,,,,,,,,,,
# 4. Item number.,,,,,,,,,,,,,
# 5. Element number.,,,,,,,,,,,,,
# 6. Type.,,,,,,,,,,,,,
# 7. Group.,,,,,,,,,,,,,
# 8. Field name.,,,,,,,,,,,,,
# 9. Field value.,,,,,,,,,,,,,
# 10. Field text.,,,,,,,,,,,,,
# 11. Field correct text.,,,,,,,,,,,,,
# 12. Field correct.,,,,,,,,,,,,,
# 13. Html.,,,,,,,,,,,,,
# 14. Timeout.,,,,,,,,,,,,,
1545347622,01c91f83402fdada3377e414372c5c7d,FormC,13,0,testing,p,who,Purple,Purple group,Violet group,FALSE,scen1-p.html,FALSE
1545347622,01c91f83402fdada3377e414372c5c7d,FormC,13,0,testing,p,what,embassy,embassy,financial institution,FALSE,scen1-p.html,FALSE
1545347622,01c91f83402fdada3377e414372c5c7d,FormC,13,0,testing,p,where,Psiland*,Psiland,Psiland,TRUE,scen1-p.html,FALSE
1545347622,01c91f83402fdada3377e414372c5c7d,FormC,13,0,testing,p,month,April*,April,April,TRUE,scen1-p.html,FALSE
1545347622,01c91f83402fdada3377e414372c5c7d,FormC,13,0,testing,p,day,4,4,5,FALSE,scen1-p.html,FALSE
1545347622,01c91f83402fdada3377e414372c5c7d,FormC,13,0,testing,p,time,11:00*,11:00,11:00,TRUE,scen1-p.html,FALSE
1545347622,01c91f83402fdada3377e414372c5c7d,FormC,13,0,testing,p,ampm,AM*,AM,AM,TRUE,scen1-p.html,FALSE
# Columns below this comment are as follows:,,,,,,,,,,,,,
# 1. Time results were received.,,,,,,,,,,,,,
# 2. MD5 hash of participant's IP address.,,,,,,,,,,,,,
# 3. Controller name.,,,,,,,,,,,,,
# 4. Item number.,,,,,,,,,,,,,
# 5. Element number.,,,,,,,,,,,,,
# 6. Type.,,,,,,,,,,,,,
# 7. Group.,,,,,,,,,,,,,
# 8. Field name.,,,,,,,,,,,,,
# 9. Field value.,,,,,,,,,,,,,
1545347622,01c91f83402fdada3377e414372c5c7d,FormC,13,0,testing,p,_REACTION_TIME_,313045,,,,,
1545347622,01c91f83402fdada3377e414372c5c7d,Form,5,0,afterScen,NULL,_REACTION_TIME_,4212,,,,,
1545347622,01c91f83402fdada3377e414372c5c7d,FormC,14,0,trust-post,p,1,2,,,,,
1545347622,01c91f83402fdada3377e414372c5c7d,FormC,14,0,trust-post,p,2,2,,,,,
1545347622,01c91f83402fdada3377e414372c5c7d,FormC,14,0,trust-post,p,3,1,,,,,
1545347622,01c91f83402fdada3377e414372c5c7d,FormC,14,0,trust-post,p,4,2,,,,,
1545347622,01c91f83402fdada3377e414372c5c7d,FormC,14,0,trust-post,p,5,2,,,,,
1545347622,01c91f83402fdada3377e414372c5c7d,FormC,14,0,trust-post,p,6,6,,,,,
1545347622,01c91f83402fdada3377e414372c5c7d,FormC,14,0,trust-post,p,7,6,,,,,
1545347622,01c91f83402fdada3377e414372c5c7d,FormC,14,0,trust-post,p,8,7,,,,,
1545347622,01c91f83402fdada3377e414372c5c7d,FormC,14,0,trust-post,p,9,7,,,,,
1545347622,01c91f83402fdada3377e414372c5c7d,FormC,14,0,trust-post,p,10,6,,,,,
1545347622,01c91f83402fdada3377e414372c5c7d,FormC,14,0,trust-post,p,11,6,,,,,
1545347622,01c91f83402fdada3377e414372c5c7d,FormC,14,0,trust-post,p,12,4,,,,,
1545347622,01c91f83402fdada3377e414372c5c7d,FormC,14,0,trust-post,p,_REACTION_TIME_,26497,,,,,
1545347622,01c91f83402fdada3377e414372c5c7d,Form,7,0,comments,NULL,comments,I used the process of elimination to find my answers. I tried to determine who would and wouldn't be responsible and chose what made the most sense to me.,,,,,
1545347622,01c91f83402fdada3377e414372c5c7d,Form,7,0,comments,NULL,notes,No,,,,,
1545347622,01c91f83402fdada3377e414372c5c7d,Form,7,0,comments,NULL,_REACTION_TIME_,50263,,,,,
1545347622,01c91f83402fdada3377e414372c5c7d,Form,21,0,end.a,NULL,mental,19,,,,,
1545347622,01c91f83402fdada3377e414372c5c7d,Form,21,0,end.a,NULL,physical,2,,,,,
1545347622,01c91f83402fdada3377e414372c5c7d,Form,21,0,end.a,NULL,temp,16,,,,,
1545347622,01c91f83402fdada3377e414372c5c7d,Form,21,0,end.a,NULL,success,17,,,,,
1545347622,01c91f83402fdada3377e414372c5c7d,Form,21,0,end.a,NULL,perf,18,,,,,
1545347622,01c91f83402fdada3377e414372c5c7d,Form,21,0,end.a,NULL,stress,19,,,,,
1545347622,01c91f83402fdada3377e414372c5c7d,Form,21,0,end.a,NULL,preference,21,,,,,
1545347622,01c91f83402fdada3377e414372c5c7d,Form,21,0,end.a,NULL,_REACTION_TIME_,18649,,,,,
1545347622,01c91f83402fdada3377e414372c5c7d,FormC,8,0,pilot,NULL,pilotQ1,Nothing was confusing. Everything was clear.,,,,,
1545347622,01c91f83402fdada3377e414372c5c7d,FormC,8,0,pilot,NULL,_REACTION_TIME_,21861,,,,,
#,,,,,,,,,,,,,
# Results on Friday December 21 2018 00:22:03 UTC.,,,,,,,,,,,,,
# USER AGENT: Mozilla/5.0 (Windows NT 6.1; Win64; x64) AppleWebKit/537.36 (KHTML, like Gecko) Chrome/71.0.3578.98 Safari/537.36,,,,,,,,,,,,
# Design number was non-random = 300,,,,,,,,,,,,,
#,,,,,,,,,,,,,
# Columns below this comment are as follows:,,,,,,,,,,,,,
# 1. Time results were received.,,,,,,,,,,,,,
# 2. MD5 hash of participant's IP address.,,,,,,,,,,,,,
# 3. Controller name.,,,,,,,,,,,,,
# 4. Item number.,,,,,,,,,,,,,
# 5. Element number.,,,,,,,,,,,,,
# 6. Type.,,,,,,,,,,,,,
# 7. Group.,,,,,,,,,,,,,
# 8. Field name.,,,,,,,,,,,,,
# 9. Field value.,,,,,,,,,,,,,
1545351724,b410936cc702006c84fa2606c12bb50b,FormC,1,0,inst,NULL,other_reason,,,,,,
1545351724,b410936cc702006c84fa2606c12bb50b,FormC,1,0,inst,NULL,Color,4,,,,,
1545351724,b410936cc702006c84fa2606c12bb50b,FormC,1,0,inst,NULL,Language,Yes,,,,,
1545351724,b410936cc702006c84fa2606c12bb50b,FormC,1,0,inst,NULL,Age,18-29,,,,,
1545351724,b410936cc702006c84fa2606c12bb50b,FormC,1,0,inst,NULL,Gender,Male,,,,,
1545351724,b410936cc702006c84fa2606c12bb50b,FormC,1,0,inst,NULL,Education,Ed3,,,,,
1545351724,b410936cc702006c84fa2606c12bb50b,FormC,1,0,inst,NULL,Occupation,O1,,,,,
1545351724,b410936cc702006c84fa2606c12bb50b,FormC,1,0,inst,NULL,_REACTION_TIME_,48755,,,,,
1545351724,b410936cc702006c84fa2606c12bb50b,FormC,2,0,inst,NULL,_REACTION_TIME_,280098,,,,,
1545351724,b410936cc702006c84fa2606c12bb50b,Form,15,0,introTraining.P,NULL,_REACTION_TIME_,6542,,,,,
# Columns below this comment are as follows:,,,,,,,,,,,,,
# 1. Time results were received.,,,,,,,,,,,,,
# 2. MD5 hash of participant's IP address.,,,,,,,,,,,,,
# 3. Controller name.,,,,,,,,,,,,,
# 4. Item number.,,,,,,,,,,,,,
# 5. Element number.,,,,,,,,,,,,,
# 6. Type.,,,,,,,,,,,,,
# 7. Group.,,,,,,,,,,,,,
# 8. Field name.,,,,,,,,,,,,,
# 9. Field value.,,,,,,,,,,,,,
# 10. Field text.,,,,,,,,,,,,,
# 11. Field correct text.,,,,,,,,,,,,,
# 12. Field correct.,,,,,,,,,,,,,
# 13. Html.,,,,,,,,,,,,,
# 14. Timeout.,,,,,,,,,,,,,
1545351724,b410936cc702006c84fa2606c12bb50b,FormC,3,0,training.P,NULL,who,Cube*,Cube group,Cube group,TRUE,train-p.html,FALSE
1545351724,b410936cc702006c84fa2606c12bb50b,FormC,3,0,training.P,NULL,what,hotel*,hotel,hotel,TRUE,train-p.html,FALSE
1545351724,b410936cc702006c84fa2606c12bb50b,FormC,3,0,training.P,NULL,where,Gibbonland*,Gibbonland,Gibbonland,TRUE,train-p.html,FALSE
1545351724,b410936cc702006c84fa2606c12bb50b,FormC,3,0,training.P,NULL,month,December,December,January,FALSE,train-p.html,FALSE
1545351724,b410936cc702006c84fa2606c12bb50b,FormC,3,0,training.P,NULL,day,31,31,1,FALSE,train-p.html,FALSE
1545351724,b410936cc702006c84fa2606c12bb50b,FormC,3,0,training.P,NULL,time,11:00*,11:00,11:00,TRUE,train-p.html,FALSE
1545351724,b410936cc702006c84fa2606c12bb50b,FormC,3,0,training.P,NULL,ampm,PM*,PM,PM,TRUE,train-p.html,FALSE
# Columns below this comment are as follows:,,,,,,,,,,,,,
# 1. Time results were received.,,,,,,,,,,,,,
# 2. MD5 hash of participant's IP address.,,,,,,,,,,,,,
# 3. Controller name.,,,,,,,,,,,,,
# 4. Item number.,,,,,,,,,,,,,
# 5. Element number.,,,,,,,,,,,,,
# 6. Type.,,,,,,,,,,,,,
# 7. Group.,,,,,,,,,,,,,
# 8. Field name.,,,,,,,,,,,,,
# 9. Field value.,,,,,,,,,,,,,
1545351724,b410936cc702006c84fa2606c12bb50b,FormC,3,0,training.P,NULL,_REACTION_TIME_,59891,,,,,
1545351724,b410936cc702006c84fa2606c12bb50b,Form,5,0,afterScen,NULL,_REACTION_TIME_,16727,,,,,
1545351724,b410936cc702006c84fa2606c12bb50b,Form,16,0,introTraining.M,NULL,_REACTION_TIME_,222646,,,,,
# Columns below this comment are as follows:,,,,,,,,,,,,,
# 1. Time results were received.,,,,,,,,,,,,,
# 2. MD5 hash of participant's IP address.,,,,,,,,,,,,,
# 3. Controller name.,,,,,,,,,,,,,
# 4. Item number.,,,,,,,,,,,,,
# 5. Element number.,,,,,,,,,,,,,
# 6. Type.,,,,,,,,,,,,,
# 7. Group.,,,,,,,,,,,,,
# 8. Field name.,,,,,,,,,,,,,
# 9. Field value.,,,,,,,,,,,,,
# 10. Field text.,,,,,,,,,,,,,
# 11. Field correct text.,,,,,,,,,,,,,
# 12. Field correct.,,,,,,,,,,,,,
# 13. Html.,,,,,,,,,,,,,
# 14. Timeout.,,,,,,,,,,,,,
1545351724,b410936cc702006c84fa2606c12bb50b,FormC,4,0,training.M,NULL,who,Cube,Cube group,Tetrahedron group,FALSE,train-m.html,FALSE
1545351724,b410936cc702006c84fa2606c12bb50b,FormC,4,0,training.M,NULL,what,military-base*,military base,military base,TRUE,train-m.html,FALSE
1545351724,b410936cc702006c84fa2606c12bb50b,FormC,4,0,training.M,NULL,where,Lemurland*,Lemurland,Lemurland,TRUE,train-m.html,FALSE
1545351724,b410936cc702006c84fa2606c12bb50b,FormC,4,0,training.M,NULL,month,March*,March,March,TRUE,train-m.html,FALSE
1545351724,b410936cc702006c84fa2606c12bb50b,FormC,4,0,training.M,NULL,day,1*,1,1,TRUE,train-m.html,FALSE
1545351724,b410936cc702006c84fa2606c12bb50b,FormC,4,0,training.M,NULL,time,3:00*,3:00,3:00,TRUE,train-m.html,FALSE
1545351724,b410936cc702006c84fa2606c12bb50b,FormC,4,0,training.M,NULL,ampm,PM,PM,AM,FALSE,train-m.html,FALSE
# Columns below this comment are as follows:,,,,,,,,,,,,,
# 1. Time results were received.,,,,,,,,,,,,,
# 2. MD5 hash of participant's IP address.,,,,,,,,,,,,,
# 3. Controller name.,,,,,,,,,,,,,
# 4. Item number.,,,,,,,,,,,,,
# 5. Element number.,,,,,,,,,,,,,
# 6. Type.,,,,,,,,,,,,,
# 7. Group.,,,,,,,,,,,,,
# 8. Field name.,,,,,,,,,,,,,
# 9. Field value.,,,,,,,,,,,,,
1545351724,b410936cc702006c84fa2606c12bb50b,FormC,4,0,training.M,NULL,_REACTION_TIME_,54270,,,,,
1545351724,b410936cc702006c84fa2606c12bb50b,Form,5,0,afterScen,NULL,_REACTION_TIME_,5499,,,,,
1545351724,b410936cc702006c84fa2606c12bb50b,FormC,6,0,trust-pre,NULL,1,2,,,,,
1545351724,b410936cc702006c84fa2606c12bb50b,FormC,6,0,trust-pre,NULL,2,3,,,,,
1545351724,b410936cc702006c84fa2606c12bb50b,FormC,6,0,trust-pre,NULL,3,3,,,,,
1545351724,b410936cc702006c84fa2606c12bb50b,FormC,6,0,trust-pre,NULL,4,4,,,,,
1545351724,b410936cc702006c84fa2606c12bb50b,FormC,6,0,trust-pre,NULL,5,2,,,,,
1545351724,b410936cc702006c84fa2606c12bb50b,FormC,6,0,trust-pre,NULL,6,5,,,,,
1545351724,b410936cc702006c84fa2606c12bb50b,FormC,6,0,trust-pre,NULL,7,5,,,,,
1545351724,b410936cc702006c84fa2606c12bb50b,FormC,6,0,trust-pre,NULL,8,6,,,,,
1545351724,b410936cc702006c84fa2606c12bb50b,FormC,6,0,trust-pre,NULL,9,5,,,,,
1545351724,b410936cc702006c84fa2606c12bb50b,FormC,6,0,trust-pre,NULL,10,5,,,,,
1545351724,b410936cc702006c84fa2606c12bb50b,FormC,6,0,trust-pre,NULL,11,5,,,,,
1545351724,b410936cc702006c84fa2606c12bb50b,FormC,6,0,trust-pre,NULL,12,6,,,,,
1545351724,b410936cc702006c84fa2606c12bb50b,FormC,6,0,trust-pre,NULL,_REACTION_TIME_,44138,,,,,
1545351724,b410936cc702006c84fa2606c12bb50b,Form,17,0,introTest,NULL,_REACTION_TIME_,21346,,,,,
# Columns below this comment are as follows:,,,,,,,,,,,,,
# 1. Time results were received.,,,,,,,,,,,,,
# 2. MD5 hash of participant's IP address.,,,,,,,,,,,,,
# 3. Controller name.,,,,,,,,,,,,,
# 4. Item number.,,,,,,,,,,,,,
# 5. Element number.,,,,,,,,,,,,,
# 6. Type.,,,,,,,,,,,,,
# 7. Group.,,,,,,,,,,,,,
# 8. Field name.,,,,,,,,,,,,,
# 9. Field value.,,,,,,,,,,,,,
# 10. Field text.,,,,,,,,,,,,,
# 11. Field correct text.,,,,,,,,,,,,,
# 12. Field correct.,,,,,,,,,,,,,
# 13. Html.,,,,,,,,,,,,,
# 14. Timeout.,,,,,,,,,,,,,
1545351724,b410936cc702006c84fa2606c12bb50b,FormC,9,0,testing,m,who,Silver*,Silver group,Silver group,TRUE,scen4-m.html,FALSE
1545351724,b410936cc702006c84fa2606c12bb50b,FormC,9,0,testing,m,what,religious-school,a religious school,a secular school,FALSE,scen4-m.html,FALSE
1545351724,b410936cc702006c84fa2606c12bb50b,FormC,9,0,testing,m,where,Omicronland*,Omicronland,Omicronland,TRUE,scen4-m.html,FALSE
1545351724,b410936cc702006c84fa2606c12bb50b,FormC,9,0,testing,m,month,January*,January,January,TRUE,scen4-m.html,FALSE
1545351724,b410936cc702006c84fa2606c12bb50b,FormC,9,0,testing,m,day,1*,1,1,TRUE,scen4-m.html,FALSE
1545351724,b410936cc702006c84fa2606c12bb50b,FormC,9,0,testing,m,time,9:00*,9:00,9:00,TRUE,scen4-m.html,FALSE
1545351724,b410936cc702006c84fa2606c12bb50b,FormC,9,0,testing,m,ampm,AM*,AM,AM,TRUE,scen4-m.html,FALSE
# Columns below this comment are as follows:,,,,,,,,,,,,,
# 1. Time results were received.,,,,,,,,,,,,,
# 2. MD5 hash of participant's IP address.,,,,,,,,,,,,,
# 3. Controller name.,,,,,,,,,,,,,
# 4. Item number.,,,,,,,,,,,,,
# 5. Element number.,,,,,,,,,,,,,
# 6. Type.,,,,,,,,,,,,,
# 7. Group.,,,,,,,,,,,,,
# 8. Field name.,,,,,,,,,,,,,
# 9. Field value.,,,,,,,,,,,,,
1545351724,b410936cc702006c84fa2606c12bb50b,FormC,9,0,testing,m,_REACTION_TIME_,1045830,,,,,
1545351724,b410936cc702006c84fa2606c12bb50b,Form,5,0,afterScen,NULL,_REACTION_TIME_,14604,,,,,
1545351724,b410936cc702006c84fa2606c12bb50b,Form,18,0,betweenTest,NULL,_REACTION_TIME_,175880,,,,,
# Columns below this comment are as follows:,,,,,,,,,,,,,
# 1. Time results were received.,,,,,,,,,,,,,
# 2. MD5 hash of participant's IP address.,,,,,,,,,,,,,
# 3. Controller name.,,,,,,,,,,,,,
# 4. Item number.,,,,,,,,,,,,,
# 5. Element number.,,,,,,,,,,,,,
# 6. Type.,,,,,,,,,,,,,
# 7. Group.,,,,,,,,,,,,,
# 8. Field name.,,,,,,,,,,,,,
# 9. Field value.,,,,,,,,,,,,,
# 10. Field text.,,,,,,,,,,,,,
# 11. Field correct text.,,,,,,,,,,,,,
# 12. Field correct.,,,,,,,,,,,,,
# 13. Html.,,,,,,,,,,,,,
# 14. Timeout.,,,,,,,,,,,,,
1545351724,b410936cc702006c84fa2606c12bb50b,FormC,10,0,testing,m,who,Violet*,Violet group,Violet group,TRUE,scen1-m.html,FALSE
1545351724,b410936cc702006c84fa2606c12bb50b,FormC,10,0,testing,m,what,embassy,embassy,financial institution,FALSE,scen1-m.html,FALSE
1545351724,b410936cc702006c84fa2606c12bb50b,FormC,10,0,testing,m,where,Psiland*,Psiland,Psiland,TRUE,scen1-m.html,FALSE
1545351724,b410936cc702006c84fa2606c12bb50b,FormC,10,0,testing,m,month,March,March,April,FALSE,scen1-m.html,FALSE
1545351724,b410936cc702006c84fa2606c12bb50b,FormC,10,0,testing,m,day,5*,5,5,TRUE,scen1-m.html,FALSE
1545351724,b410936cc702006c84fa2606c12bb50b,FormC,10,0,testing,m,time,11:00*,11:00,11:00,TRUE,scen1-m.html,FALSE
1545351724,b410936cc702006c84fa2606c12bb50b,FormC,10,0,testing,m,ampm,AM*,AM,AM,TRUE,scen1-m.html,FALSE
# Columns below this comment are as follows:,,,,,,,,,,,,,
# 1. Time results were received.,,,,,,,,,,,,,
# 2. MD5 hash of participant's IP address.,,,,,,,,,,,,,
# 3. Controller name.,,,,,,,,,,,,,
# 4. Item number.,,,,,,,,,,,,,
# 5. Element number.,,,,,,,,,,,,,
# 6. Type.,,,,,,,,,,,,,
# 7. Group.,,,,,,,,,,,,,
# 8. Field name.,,,,,,,,,,,,,
# 9. Field value.,,,,,,,,,,,,,
1545351724,b410936cc702006c84fa2606c12bb50b,FormC,10,0,testing,m,_REACTION_TIME_,597102,,,,,
1545351724,b410936cc702006c84fa2606c12bb50b,Form,5,0,afterScen,NULL,_REACTION_TIME_,6204,,,,,
1545351724,b410936cc702006c84fa2606c12bb50b,FormC,11,0,trust-post,m,1,2,,,,,
1545351724,b410936cc702006c84fa2606c12bb50b,FormC,11,0,trust-post,m,2,2,,,,,
1545351724,b410936cc702006c84fa2606c12bb50b,FormC,11,0,trust-post,m,3,2,,,,,
1545351724,b410936cc702006c84fa2606c12bb50b,FormC,11,0,trust-post,m,4,3,,,,,
1545351724,b410936cc702006c84fa2606c12bb50b,FormC,11,0,trust-post,m,5,2,,,,,
1545351724,b410936cc702006c84fa2606c12bb50b,FormC,11,0,trust-post,m,6,5,,,,,
1545351724,b410936cc702006c84fa2606c12bb50b,FormC,11,0,trust-post,m,7,6,,,,,
1545351724,b410936cc702006c84fa2606c12bb50b,FormC,11,0,trust-post,m,8,6,,,,,
1545351724,b410936cc702006c84fa2606c12bb50b,FormC,11,0,trust-post,m,9,6,,,,,
1545351724,b410936cc702006c84fa2606c12bb50b,FormC,11,0,trust-post,m,10,5,,,,,
1545351724,b410936cc702006c84fa2606c12bb50b,FormC,11,0,trust-post,m,11,5,,,,,
1545351724,b410936cc702006c84fa2606c12bb50b,FormC,11,0,trust-post,m,12,5,,,,,
1545351724,b410936cc702006c84fa2606c12bb50b,FormC,11,0,trust-post,m,_REACTION_TIME_,38732,,,,,
1545351724,b410936cc702006c84fa2606c12bb50b,Form,7,0,comments,NULL,comments,I used the dates as a starting point.,,,,,
1545351724,b410936cc702006c84fa2606c12bb50b,Form,7,0,comments,NULL,notes,No,,,,,
1545351724,b410936cc702006c84fa2606c12bb50b,Form,7,0,comments,NULL,_REACTION_TIME_,44296,,,,,
1545351724,b410936cc702006c84fa2606c12bb50b,Form,21,0,end.b,NULL,mental,16,,,,,
1545351724,b410936cc702006c84fa2606c12bb50b,Form,21,0,end.b,NULL,physical,7,,,,,
1545351724,b410936cc702006c84fa2606c12bb50b,Form,21,0,end.b,NULL,temp,6,,,,,
1545351724,b410936cc702006c84fa2606c12bb50b,Form,21,0,end.b,NULL,success,14,,,,,
1545351724,b410936cc702006c84fa2606c12bb50b,Form,21,0,end.b,NULL,perf,14,,,,,
1545351724,b410936cc702006c84fa2606c12bb50b,Form,21,0,end.b,NULL,stress,7,,,,,
1545351724,b410936cc702006c84fa2606c12bb50b,Form,21,0,end.b,NULL,preference,18,,,,,
1545351724,b410936cc702006c84fa2606c12bb50b,Form,21,0,end.b,NULL,_REACTION_TIME_,52996,,,,,
1545351724,b410936cc702006c84fa2606c12bb50b,FormC,8,0,pilot,NULL,pilotQ1,No.,,,,,
1545351724,b410936cc702006c84fa2606c12bb50b,FormC,8,0,pilot,NULL,_REACTION_TIME_,21899,,,,,
#,,,,,,,,,,,,,
# Results on Friday December 21 2018 00:46:04 UTC.,,,,,,,,,,,,,
# USER AGENT: Mozilla/5.0 (Windows NT 10.0; Win64; x64) AppleWebKit/537.36 (KHTML, like Gecko) Chrome/71.0.3578.98 Safari/537.36,,,,,,,,,,,,
# Design number was non-random = 302,,,,,,,,,,,,,
#,,,,,,,,,,,,,
# Columns below this comment are as follows:,,,,,,,,,,,,,
# 1. Time results were received.,,,,,,,,,,,,,
# 2. MD5 hash of participant's IP address.,,,,,,,,,,,,,
# 3. Controller name.,,,,,,,,,,,,,
# 4. Item number.,,,,,,,,,,,,,
# 5. Element number.,,,,,,,,,,,,,
# 6. Type.,,,,,,,,,,,,,
# 7. Group.,,,,,,,,,,,,,
# 8. Field name.,,,,,,,,,,,,,
# 9. Field value.,,,,,,,,,,,,,
1545353165,fed479618f7f4bf9a487b3f78f768f68,FormC,1,0,inst,NULL,other_reason,,,,,,
1545353165,fed479618f7f4bf9a487b3f78f768f68,FormC,1,0,inst,NULL,Color,4,,,,,
1545353165,fed479618f7f4bf9a487b3f78f768f68,FormC,1,0,inst,NULL,Language,No,,,,,
1545353165,fed479618f7f4bf9a487b3f78f768f68,FormC,1,0,inst,NULL,Age,18-29,,,,,
1545353165,fed479618f7f4bf9a487b3f78f768f68,FormC,1,0,inst,NULL,Gender,Female,,,,,
1545353165,fed479618f7f4bf9a487b3f78f768f68,FormC,1,0,inst,NULL,Education,Ed3,,,,,
1545353165,fed479618f7f4bf9a487b3f78f768f68,FormC,1,0,inst,NULL,Occupation,O9,,,,,
1545353165,fed479618f7f4bf9a487b3f78f768f68,FormC,1,0,inst,NULL,_REACTION_TIME_,33033,,,,,
1545353165,fed479618f7f4bf9a487b3f78f768f68,FormC,2,0,inst,NULL,_REACTION_TIME_,551572,,,,,
1545353165,fed479618f7f4bf9a487b3f78f768f68,Form,15,0,introTraining.P,NULL,_REACTION_TIME_,4698,,,,,
# Columns below this comment are as follows:,,,,,,,,,,,,,
# 1. Time results were received.,,,,,,,,,,,,,
# 2. MD5 hash of participant's IP address.,,,,,,,,,,,,,
# 3. Controller name.,,,,,,,,,,,,,
# 4. Item number.,,,,,,,,,,,,,
# 5. Element number.,,,,,,,,,,,,,
# 6. Type.,,,,,,,,,,,,,
# 7. Group.,,,,,,,,,,,,,
# 8. Field name.,,,,,,,,,,,,,
# 9. Field value.,,,,,,,,,,,,,
# 10. Field text.,,,,,,,,,,,,,
# 11. Field correct text.,,,,,,,,,,,,,
# 12. Field correct.,,,,,,,,,,,,,
# 13. Html.,,,,,,,,,,,,,
# 14. Timeout.,,,,,,,,,,,,,
1545353165,fed479618f7f4bf9a487b3f78f768f68,FormC,3,0,training.P,NULL,who,Cube*,Cube group,Cube group,TRUE,train-p.html,FALSE
1545353165,fed479618f7f4bf9a487b3f78f768f68,FormC,3,0,training.P,NULL,what,hotel*,hotel,hotel,TRUE,train-p.html,FALSE
1545353165,fed479618f7f4bf9a487b3f78f768f68,FormC,3,0,training.P,NULL,where,Gibbonland*,Gibbonland,Gibbonland,TRUE,train-p.html,FALSE
1545353165,fed479618f7f4bf9a487b3f78f768f68,FormC,3,0,training.P,NULL,month,January*,January,January,TRUE,train-p.html,FALSE
1545353165,fed479618f7f4bf9a487b3f78f768f68,FormC,3,0,training.P,NULL,day,1*,1,1,TRUE,train-p.html,FALSE
1545353165,fed479618f7f4bf9a487b3f78f768f68,FormC,3,0,training.P,NULL,time,11:00*,11:00,11:00,TRUE,train-p.html,FALSE
1545353165,fed479618f7f4bf9a487b3f78f768f68,FormC,3,0,training.P,NULL,ampm,PM*,PM,PM,TRUE,train-p.html,FALSE
# Columns below this comment are as follows:,,,,,,,,,,,,,
# 1. Time results were received.,,,,,,,,,,,,,
# 2. MD5 hash of participant's IP address.,,,,,,,,,,,,,
# 3. Controller name.,,,,,,,,,,,,,
# 4. Item number.,,,,,,,,,,,,,
# 5. Element number.,,,,,,,,,,,,,
# 6. Type.,,,,,,,,,,,,,
# 7. Group.,,,,,,,,,,,,,
# 8. Field name.,,,,,,,,,,,,,
# 9. Field value.,,,,,,,,,,,,,
1545353165,fed479618f7f4bf9a487b3f78f768f68,FormC,3,0,training.P,NULL,_REACTION_TIME_,43900,,,,,
1545353165,fed479618f7f4bf9a487b3f78f768f68,Form,5,0,afterScen,NULL,_REACTION_TIME_,4067,,,,,
1545353165,fed479618f7f4bf9a487b3f78f768f68,Form,16,0,introTraining.M,NULL,_REACTION_TIME_,9701,,,,,
# Columns below this comment are as follows:,,,,,,,,,,,,,
# 1. Time results were received.,,,,,,,,,,,,,
# 2. MD5 hash of participant's IP address.,,,,,,,,,,,,,
# 3. Controller name.,,,,,,,,,,,,,
# 4. Item number.,,,,,,,,,,,,,
# 5. Element number.,,,,,,,,,,,,,
# 6. Type.,,,,,,,,,,,,,
# 7. Group.,,,,,,,,,,,,,
# 8. Field name.,,,,,,,,,,,,,
# 9. Field value.,,,,,,,,,,,,,
# 10. Field text.,,,,,,,,,,,,,
# 11. Field correct text.,,,,,,,,,,,,,
# 12. Field correct.,,,,,,,,,,,,,
# 13. Html.,,,,,,,,,,,,,
# 14. Timeout.,,,,,,,,,,,,,
1545353165,fed479618f7f4bf9a487b3f78f768f68,FormC,4,0,training.M,NULL,who,Tetrahedron*,Tetrahedron group,Tetrahedron group,TRUE,train-m.html,FALSE
1545353165,fed479618f7f4bf9a487b3f78f768f68,FormC,4,0,training.M,NULL,what,military-base*,military base,military base,TRUE,train-m.html,FALSE
1545353165,fed479618f7f4bf9a487b3f78f768f68,FormC,4,0,training.M,NULL,where,Lemurland*,Lemurland,Lemurland,TRUE,train-m.html,FALSE
1545353165,fed479618f7f4bf9a487b3f78f768f68,FormC,4,0,training.M,NULL,month,March*,March,March,TRUE,train-m.html,FALSE
1545353165,fed479618f7f4bf9a487b3f78f768f68,FormC,4,0,training.M,NULL,day,1*,1,1,TRUE,train-m.html,FALSE
1545353165,fed479618f7f4bf9a487b3f78f768f68,FormC,4,0,training.M,NULL,time,3:00*,3:00,3:00,TRUE,train-m.html,FALSE
1545353165,fed479618f7f4bf9a487b3f78f768f68,FormC,4,0,training.M,NULL,ampm,PM,PM,AM,FALSE,train-m.html,FALSE
# Columns below this comment are as follows:,,,,,,,,,,,,,
# 1. Time results were received.,,,,,,,,,,,,,
# 2. MD5 hash of participant's IP address.,,,,,,,,,,,,,
# 3. Controller name.,,,,,,,,,,,,,
# 4. Item number.,,,,,,,,,,,,,
# 5. Element number.,,,,,,,,,,,,,
# 6. Type.,,,,,,,,,,,,,
# 7. Group.,,,,,,,,,,,,,
# 8. Field name.,,,,,,,,,,,,,
# 9. Field value.,,,,,,,,,,,,,
1545353165,fed479618f7f4bf9a487b3f78f768f68,FormC,4,0,training.M,NULL,_REACTION_TIME_,40301,,,,,
1545353165,fed479618f7f4bf9a487b3f78f768f68,Form,5,0,afterScen,NULL,_REACTION_TIME_,4073,,,,,
1545353165,fed479618f7f4bf9a487b3f78f768f68,FormC,6,0,trust-pre,NULL,1,2,,,,,
1545353165,fed479618f7f4bf9a487b3f78f768f68,FormC,6,0,trust-pre,NULL,2,2,,,,,
1545353165,fed479618f7f4bf9a487b3f78f768f68,FormC,6,0,trust-pre,NULL,3,1,,,,,
1545353165,fed479618f7f4bf9a487b3f78f768f68,FormC,6,0,trust-pre,NULL,4,1,,,,,
1545353165,fed479618f7f4bf9a487b3f78f768f68,FormC,6,0,trust-pre,NULL,5,1,,,,,
1545353165,fed479618f7f4bf9a487b3f78f768f68,FormC,6,0,trust-pre,NULL,6,6,,,,,
1545353165,fed479618f7f4bf9a487b3f78f768f68,FormC,6,0,trust-pre,NULL,7,6,,,,,
1545353165,fed479618f7f4bf9a487b3f78f768f68,FormC,6,0,trust-pre,NULL,8,6,,,,,
1545353165,fed479618f7f4bf9a487b3f78f768f68,FormC,6,0,trust-pre,NULL,9,6,,,,,
1545353165,fed479618f7f4bf9a487b3f78f768f68,FormC,6,0,trust-pre,NULL,10,6,,,,,
1545353165,fed479618f7f4bf9a487b3f78f768f68,FormC,6,0,trust-pre,NULL,11,6,,,,,
1545353165,fed479618f7f4bf9a487b3f78f768f68,FormC,6,0,trust-pre,NULL,12,5,,,,,
1545353165,fed479618f7f4bf9a487b3f78f768f68,FormC,6,0,trust-pre,NULL,_REACTION_TIME_,28998,,,,,
1545353165,fed479618f7f4bf9a487b3f78f768f68,Form,17,0,introTest,NULL,_REACTION_TIME_,11091,,,,,
# Columns below this comment are as follows:,,,,,,,,,,,,,
# 1. Time results were received.,,,,,,,,,,,,,
# 2. MD5 hash of participant's IP address.,,,,,,,,,,,,,
# 3. Controller name.,,,,,,,,,,,,,
# 4. Item number.,,,,,,,,,,,,,
# 5. Element number.,,,,,,,,,,,,,
# 6. Type.,,,,,,,,,,,,,
# 7. Group.,,,,,,,,,,,,,
# 8. Field name.,,,,,,,,,,,,,
# 9. Field value.,,,,,,,,,,,,,
# 10. Field text.,,,,,,,,,,,,,
# 11. Field correct text.,,,,,,,,,,,,,
# 12. Field correct.,,,,,,,,,,,,,
# 13. Html.,,,,,,,,,,,,,
# 14. Timeout.,,,,,,,,,,,,,
1545353165,fed479618f7f4bf9a487b3f78f768f68,FormC,10,0,testing,m,who,Violet*,Violet group,Violet group,TRUE,scen1-m.html,FALSE
1545353165,fed479618f7f4bf9a487b3f78f768f68,FormC,10,0,testing,m,what,financial-institution*,financial institution,financial institution,TRUE,scen1-m.html,FALSE
1545353165,fed479618f7f4bf9a487b3f78f768f68,FormC,10,0,testing,m,where,Psiland*,Psiland,Psiland,TRUE,scen1-m.html,FALSE
1545353165,fed479618f7f4bf9a487b3f78f768f68,FormC,10,0,testing,m,month,April*,April,April,TRUE,scen1-m.html,FALSE
1545353165,fed479618f7f4bf9a487b3f78f768f68,FormC,10,0,testing,m,day,5*,5,5,TRUE,scen1-m.html,FALSE
1545353165,fed479618f7f4bf9a487b3f78f768f68,FormC,10,0,testing,m,time,11:00*,11:00,11:00,TRUE,scen1-m.html,FALSE
1545353165,fed479618f7f4bf9a487b3f78f768f68,FormC,10,0,testing,m,ampm,AM*,AM,AM,TRUE,scen1-m.html,FALSE
# Columns below this comment are as follows:,,,,,,,,,,,,,
# 1. Time results were received.,,,,,,,,,,,,,
# 2. MD5 hash of participant's IP address.,,,,,,,,,,,,,
# 3. Controller name.,,,,,,,,,,,,,
# 4. Item number.,,,,,,,,,,,,,
# 5. Element number.,,,,,,,,,,,,,
# 6. Type.,,,,,,,,,,,,,
# 7. Group.,,,,,,,,,,,,,
# 8. Field name.,,,,,,,,,,,,,
# 9. Field value.,,,,,,,,,,,,,
1545353165,fed479618f7f4bf9a487b3f78f768f68,FormC,10,0,testing,m,_REACTION_TIME_,859443,,,,,
1545353165,fed479618f7f4bf9a487b3f78f768f68,Form,5,0,afterScen,NULL,_REACTION_TIME_,3198,,,,,
1545353165,fed479618f7f4bf9a487b3f78f768f68,Form,18,0,betweenTest,NULL,_REACTION_TIME_,1038414,,,,,
# Columns below this comment are as follows:,,,,,,,,,,,,,
# 1. Time results were received.,,,,,,,,,,,,,
# 2. MD5 hash of participant's IP address.,,,,,,,,,,,,,
# 3. Controller name.,,,,,,,,,,,,,
# 4. Item number.,,,,,,,,,,,,,
# 5. Element number.,,,,,,,,,,,,,
# 6. Type.,,,,,,,,,,,,,
# 7. Group.,,,,,,,,,,,,,
# 8. Field name.,,,,,,,,,,,,,
# 9. Field value.,,,,,,,,,,,,,
# 10. Field text.,,,,,,,,,,,,,
# 11. Field correct text.,,,,,,,,,,,,,
# 12. Field correct.,,,,,,,,,,,,,
# 13. Html.,,,,,,,,,,,,,
# 14. Timeout.,,,,,,,,,,,,,
1545353165,fed479618f7f4bf9a487b3f78f768f68,FormC,9,0,testing,m,who,Silver*,Silver group,Silver group,TRUE,scen4-m.html,FALSE
1545353165,fed479618f7f4bf9a487b3f78f768f68,FormC,9,0,testing,m,what,religious-school,a religious school,a secular school,FALSE,scen4-m.html,FALSE
1545353165,fed479618f7f4bf9a487b3f78f768f68,FormC,9,0,testing,m,where,Xiland,Xiland,Omicronland,FALSE,scen4-m.html,FALSE
1545353165,fed479618f7f4bf9a487b3f78f768f68,FormC,9,0,testing,m,month,January*,January,January,TRUE,scen4-m.html,FALSE
1545353165,fed479618f7f4bf9a487b3f78f768f68,FormC,9,0,testing,m,day,1*,1,1,TRUE,scen4-m.html,FALSE
1545353165,fed479618f7f4bf9a487b3f78f768f68,FormC,9,0,testing,m,time,9:00*,9:00,9:00,TRUE,scen4-m.html,FALSE
1545353165,fed479618f7f4bf9a487b3f78f768f68,FormC,9,0,testing,m,ampm,AM*,AM,AM,TRUE,scen4-m.html,FALSE
# Columns below this comment are as follows:,,,,,,,,,,,,,
# 1. Time results were received.,,,,,,,,,,,,,
# 2. MD5 hash of participant's IP address.,,,,,,,,,,,,,
# 3. Controller name.,,,,,,,,,,,,,
# 4. Item number.,,,,,,,,,,,,,
# 5. Element number.,,,,,,,,,,,,,
# 6. Type.,,,,,,,,,,,,,
# 7. Group.,,,,,,,,,,,,,
# 8. Field name.,,,,,,,,,,,,,
# 9. Field value.,,,,,,,,,,,,,
1545353165,fed479618f7f4bf9a487b3f78f768f68,FormC,9,0,testing,m,_REACTION_TIME_,641150,,,,,
1545353165,fed479618f7f4bf9a487b3f78f768f68,Form,5,0,afterScen,NULL,_REACTION_TIME_,4686,,,,,
1545353165,fed479618f7f4bf9a487b3f78f768f68,FormC,11,0,trust-post,m,1,2,,,,,
1545353165,fed479618f7f4bf9a487b3f78f768f68,FormC,11,0,trust-post,m,2,1,,,,,
1545353165,fed479618f7f4bf9a487b3f78f768f68,FormC,11,0,trust-post,m,3,1,,,,,
1545353165,fed479618f7f4bf9a487b3f78f768f68,FormC,11,0,trust-post,m,4,1,,,,,
1545353165,fed479618f7f4bf9a487b3f78f768f68,FormC,11,0,trust-post,m,5,1,,,,,
1545353165,fed479618f7f4bf9a487b3f78f768f68,FormC,11,0,trust-post,m,6,5,,,,,
1545353165,fed479618f7f4bf9a487b3f78f768f68,FormC,11,0,trust-post,m,7,5,,,,,
1545353165,fed479618f7f4bf9a487b3f78f768f68,FormC,11,0,trust-post,m,8,5,,,,,
1545353165,fed479618f7f4bf9a487b3f78f768f68,FormC,11,0,trust-post,m,9,5,,,,,
1545353165,fed479618f7f4bf9a487b3f78f768f68,FormC,11,0,trust-post,m,10,5,,,,,
1545353165,fed479618f7f4bf9a487b3f78f768f68,FormC,11,0,trust-post,m,11,5,,,,,
1545353165,fed479618f7f4bf9a487b3f78f768f68,FormC,11,0,trust-post,m,12,6,,,,,
1545353165,fed479618f7f4bf9a487b3f78f768f68,FormC,11,0,trust-post,m,_REACTION_TIME_,20297,,,,,
1545353165,fed479618f7f4bf9a487b3f78f768f68,Form,7,0,comments,NULL,comments,I tried to cross out things until there were only a few options left.,,,,,
1545353165,fed479618f7f4bf9a487b3f78f768f68,Form,7,0,comments,NULL,notes,Yes,,,,,
1545353165,fed479618f7f4bf9a487b3f78f768f68,Form,7,0,comments,NULL,_REACTION_TIME_,46441,,,,,
1545353165,fed479618f7f4bf9a487b3f78f768f68,Form,21,0,end.b,NULL,mental,20,,,,,
1545353165,fed479618f7f4bf9a487b3f78f768f68,Form,21,0,end.b,NULL,physical,6,,,,,
1545353165,fed479618f7f4bf9a487b3f78f768f68,Form,21,0,end.b,NULL,temp,20,,,,,
1545353165,fed479618f7f4bf9a487b3f78f768f68,Form,21,0,end.b,NULL,success,15,,,,,
1545353165,fed479618f7f4bf9a487b3f78f768f68,Form,21,0,end.b,NULL,perf,19,,,,,
1545353165,fed479618f7f4bf9a487b3f78f768f68,Form,21,0,end.b,NULL,stress,17,,,,,
1545353165,fed479618f7f4bf9a487b3f78f768f68,Form,21,0,end.b,NULL,preference,21,,,,,
1545353165,fed479618f7f4bf9a487b3f78f768f68,Form,21,0,end.b,NULL,_REACTION_TIME_,20977,,,,,
1545353165,fed479618f7f4bf9a487b3f78f768f68,FormC,8,0,pilot,NULL,pilotQ1,N/A,,,,,
1545353165,fed479618f7f4bf9a487b3f78f768f68,FormC,8,0,pilot,NULL,_REACTION_TIME_,7452,,,,,
#,,,,,,,,,,,,,
# Results on Friday December 21 2018 01:31:50 UTC.,,,,,,,,,,,,,
# USER AGENT: Mozilla/5.0 (X11; Linux x86_64) AppleWebKit/537.36 (KHTML, like Gecko) Chrome/71.0.3578.98 Safari/537.36,,,,,,,,,,,,
# Design number was non-random = 304,,,,,,,,,,,,,
#,,,,,,,,,,,,,
# Columns below this comment are as follows:,,,,,,,,,,,,,
# 1. Time results were received.,,,,,,,,,,,,,
# 2. MD5 hash of participant's IP address.,,,,,,,,,,,,,
# 3. Controller name.,,,,,,,,,,,,,
# 4. Item number.,,,,,,,,,,,,,
# 5. Element number.,,,,,,,,,,,,,
# 6. Type.,,,,,,,,,,,,,
# 7. Group.,,,,,,,,,,,,,
# 8. Field name.,,,,,,,,,,,,,
# 9. Field value.,,,,,,,,,,,,,
1545355910,4fbf66356fca48bc2153f92ef0c9ec25,FormC,1,0,inst,NULL,other_reason,,,,,,
1545355910,4fbf66356fca48bc2153f92ef0c9ec25,FormC,1,0,inst,NULL,Color,4,,,,,
1545355910,4fbf66356fca48bc2153f92ef0c9ec25,FormC,1,0,inst,NULL,Language,No,,,,,
1545355910,4fbf66356fca48bc2153f92ef0c9ec25,FormC,1,0,inst,NULL,Age,18-29,,,,,
1545355910,4fbf66356fca48bc2153f92ef0c9ec25,FormC,1,0,inst,NULL,Gender,Male,,,,,
1545355910,4fbf66356fca48bc2153f92ef0c9ec25,FormC,1,0,inst,NULL,Education,Ed2,,,,,
1545355910,4fbf66356fca48bc2153f92ef0c9ec25,FormC,1,0,inst,NULL,Occupation,O1,,,,,
1545355910,4fbf66356fca48bc2153f92ef0c9ec25,FormC,1,0,inst,NULL,_REACTION_TIME_,71365,,,,,
1545355910,4fbf66356fca48bc2153f92ef0c9ec25,FormC,2,0,inst,NULL,_REACTION_TIME_,93870,,,,,
1545355910,4fbf66356fca48bc2153f92ef0c9ec25,Form,15,0,introTraining.P,NULL,_REACTION_TIME_,3856,,,,,
# Columns below this comment are as follows:,,,,,,,,,,,,,
# 1. Time results were received.,,,,,,,,,,,,,
# 2. MD5 hash of participant's IP address.,,,,,,,,,,,,,
# 3. Controller name.,,,,,,,,,,,,,
# 4. Item number.,,,,,,,,,,,,,
# 5. Element number.,,,,,,,,,,,,,
# 6. Type.,,,,,,,,,,,,,
# 7. Group.,,,,,,,,,,,,,
# 8. Field name.,,,,,,,,,,,,,
# 9. Field value.,,,,,,,,,,,,,
# 10. Field text.,,,,,,,,,,,,,
# 11. Field correct text.,,,,,,,,,,,,,
# 12. Field correct.,,,,,,,,,,,,,
# 13. Html.,,,,,,,,,,,,,
# 14. Timeout.,,,,,,,,,,,,,
1545355910,4fbf66356fca48bc2153f92ef0c9ec25,FormC,3,0,training.P,NULL,who,Cube*,Cube group,Cube group,TRUE,train-p.html,FALSE
1545355910,4fbf66356fca48bc2153f92ef0c9ec25,FormC,3,0,training.P,NULL,what,hotel*,hotel,hotel,TRUE,train-p.html,FALSE
1545355910,4fbf66356fca48bc2153f92ef0c9ec25,FormC,3,0,training.P,NULL,where,Gibbonland*,Gibbonland,Gibbonland,TRUE,train-p.html,FALSE
1545355910,4fbf66356fca48bc2153f92ef0c9ec25,FormC,3,0,training.P,NULL,month,January*,January,January,TRUE,train-p.html,FALSE
1545355910,4fbf66356fca48bc2153f92ef0c9ec25,FormC,3,0,training.P,NULL,day,1*,1,1,TRUE,train-p.html,FALSE
1545355910,4fbf66356fca48bc2153f92ef0c9ec25,FormC,3,0,training.P,NULL,time,11:00*,11:00,11:00,TRUE,train-p.html,FALSE
1545355910,4fbf66356fca48bc2153f92ef0c9ec25,FormC,3,0,training.P,NULL,ampm,PM*,PM,PM,TRUE,train-p.html,FALSE
# Columns below this comment are as follows:,,,,,,,,,,,,,
# 1. Time results were received.,,,,,,,,,,,,,
# 2. MD5 hash of participant's IP address.,,,,,,,,,,,,,
# 3. Controller name.,,,,,,,,,,,,,
# 4. Item number.,,,,,,,,,,,,,
# 5. Element number.,,,,,,,,,,,,,
# 6. Type.,,,,,,,,,,,,,
# 7. Group.,,,,,,,,,,,,,
# 8. Field name.,,,,,,,,,,,,,
# 9. Field value.,,,,,,,,,,,,,
1545355910,4fbf66356fca48bc2153f92ef0c9ec25,FormC,3,0,training.P,NULL,_REACTION_TIME_,87209,,,,,
1545355910,4fbf66356fca48bc2153f92ef0c9ec25,Form,5,0,afterScen,NULL,_REACTION_TIME_,10823,,,,,
1545355910,4fbf66356fca48bc2153f92ef0c9ec25,Form,16,0,introTraining.M,NULL,_REACTION_TIME_,5598,,,,,
# Columns below this comment are as follows:,,,,,,,,,,,,,
# 1. Time results were received.,,,,,,,,,,,,,
# 2. MD5 hash of participant's IP address.,,,,,,,,,,,,,
# 3. Controller name.,,,,,,,,,,,,,
# 4. Item number.,,,,,,,,,,,,,
# 5. Element number.,,,,,,,,,,,,,
# 6. Type.,,,,,,,,,,,,,
# 7. Group.,,,,,,,,,,,,,
# 8. Field name.,,,,,,,,,,,,,
# 9. Field value.,,,,,,,,,,,,,
# 10. Field text.,,,,,,,,,,,,,
# 11. Field correct text.,,,,,,,,,,,,,
# 12. Field correct.,,,,,,,,,,,,,
# 13. Html.,,,,,,,,,,,,,
# 14. Timeout.,,,,,,,,,,,,,
1545355910,4fbf66356fca48bc2153f92ef0c9ec25,FormC,4,0,training.M,NULL,who,Tetrahedron*,Tetrahedron group,Tetrahedron group,TRUE,train-m.html,FALSE
1545355910,4fbf66356fca48bc2153f92ef0c9ec25,FormC,4,0,training.M,NULL,what,military-base*,military base,military base,TRUE,train-m.html,FALSE
1545355910,4fbf66356fca48bc2153f92ef0c9ec25,FormC,4,0,training.M,NULL,where,Lemurland*,Lemurland,Lemurland,TRUE,train-m.html,FALSE
1545355910,4fbf66356fca48bc2153f92ef0c9ec25,FormC,4,0,training.M,NULL,month,March*,March,March,TRUE,train-m.html,FALSE
1545355910,4fbf66356fca48bc2153f92ef0c9ec25,FormC,4,0,training.M,NULL,day,1*,1,1,TRUE,train-m.html,FALSE
1545355910,4fbf66356fca48bc2153f92ef0c9ec25,FormC,4,0,training.M,NULL,time,3:00*,3:00,3:00,TRUE,train-m.html,FALSE
1545355910,4fbf66356fca48bc2153f92ef0c9ec25,FormC,4,0,training.M,NULL,ampm,AM*,AM,AM,TRUE,train-m.html,FALSE
# Columns below this comment are as follows:,,,,,,,,,,,,,
# 1. Time results were received.,,,,,,,,,,,,,
# 2. MD5 hash of participant's IP address.,,,,,,,,,,,,,
# 3. Controller name.,,,,,,,,,,,,,
# 4. Item number.,,,,,,,,,,,,,
# 5. Element number.,,,,,,,,,,,,,
# 6. Type.,,,,,,,,,,,,,
# 7. Group.,,,,,,,,,,,,,
# 8. Field name.,,,,,,,,,,,,,
# 9. Field value.,,,,,,,,,,,,,
1545355910,4fbf66356fca48bc2153f92ef0c9ec25,FormC,4,0,training.M,NULL,_REACTION_TIME_,56651,,,,,
1545355910,4fbf66356fca48bc2153f92ef0c9ec25,Form,5,0,afterScen,NULL,_REACTION_TIME_,2239,,,,,
1545355910,4fbf66356fca48bc2153f92ef0c9ec25,FormC,6,0,trust-pre,NULL,1,4,,,,,
1545355910,4fbf66356fca48bc2153f92ef0c9ec25,FormC,6,0,trust-pre,NULL,2,3,,,,,
1545355910,4fbf66356fca48bc2153f92ef0c9ec25,FormC,6,0,trust-pre,NULL,3,2,,,,,
1545355910,4fbf66356fca48bc2153f92ef0c9ec25,FormC,6,0,trust-pre,NULL,4,4,,,,,
1545355910,4fbf66356fca48bc2153f92ef0c9ec25,FormC,6,0,trust-pre,NULL,5,4,,,,,
1545355910,4fbf66356fca48bc2153f92ef0c9ec25,FormC,6,0,trust-pre,NULL,6,5,,,,,
1545355910,4fbf66356fca48bc2153f92ef0c9ec25,FormC,6,0,trust-pre,NULL,7,4,,,,,
1545355910,4fbf66356fca48bc2153f92ef0c9ec25,FormC,6,0,trust-pre,NULL,8,4,,,,,
1545355910,4fbf66356fca48bc2153f92ef0c9ec25,FormC,6,0,trust-pre,NULL,9,3,,,,,
1545355910,4fbf66356fca48bc2153f92ef0c9ec25,FormC,6,0,trust-pre,NULL,10,4,,,,,
1545355910,4fbf66356fca48bc2153f92ef0c9ec25,FormC,6,0,trust-pre,NULL,11,4,,,,,
1545355910,4fbf66356fca48bc2153f92ef0c9ec25,FormC,6,0,trust-pre,NULL,12,3,,,,,
1545355910,4fbf66356fca48bc2153f92ef0c9ec25,FormC,6,0,trust-pre,NULL,_REACTION_TIME_,70618,,,,,
1545355910,4fbf66356fca48bc2153f92ef0c9ec25,Form,17,0,introTest,NULL,_REACTION_TIME_,11313,,,,,
# Columns below this comment are as follows:,,,,,,,,,,,,,
# 1. Time results were received.,,,,,,,,,,,,,
# 2. MD5 hash of participant's IP address.,,,,,,,,,,,,,
# 3. Controller name.,,,,,,,,,,,,,
# 4. Item number.,,,,,,,,,,,,,
# 5. Element number.,,,,,,,,,,,,,
# 6. Type.,,,,,,,,,,,,,
# 7. Group.,,,,,,,,,,,,,
# 8. Field name.,,,,,,,,,,,,,
# 9. Field value.,,,,,,,,,,,,,
# 10. Field text.,,,,,,,,,,,,,
# 11. Field correct text.,,,,,,,,,,,,,
# 12. Field correct.,,,,,,,,,,,,,
# 13. Html.,,,,,,,,,,,,,
# 14. Timeout.,,,,,,,,,,,,,
1545355910,4fbf66356fca48bc2153f92ef0c9ec25,FormC,10,0,testing,m,who,Violet*,Violet group,Violet group,TRUE,scen1-m.html,FALSE
1545355910,4fbf66356fca48bc2153f92ef0c9ec25,FormC,10,0,testing,m,what,financial-institution*,financial institution,financial institution,TRUE,scen1-m.html,FALSE
1545355910,4fbf66356fca48bc2153f92ef0c9ec25,FormC,10,0,testing,m,where,Psiland*,Psiland,Psiland,TRUE,scen1-m.html,FALSE
1545355910,4fbf66356fca48bc2153f92ef0c9ec25,FormC,10,0,testing,m,month,April*,April,April,TRUE,scen1-m.html,FALSE
1545355910,4fbf66356fca48bc2153f92ef0c9ec25,FormC,10,0,testing,m,day,5*,5,5,TRUE,scen1-m.html,FALSE
1545355910,4fbf66356fca48bc2153f92ef0c9ec25,FormC,10,0,testing,m,time,11:00*,11:00,11:00,TRUE,scen1-m.html,FALSE
1545355910,4fbf66356fca48bc2153f92ef0c9ec25,FormC,10,0,testing,m,ampm,AM*,AM,AM,TRUE,scen1-m.html,FALSE
# Columns below this comment are as follows:,,,,,,,,,,,,,
# 1. Time results were received.,,,,,,,,,,,,,
# 2. MD5 hash of participant's IP address.,,,,,,,,,,,,,
# 3. Controller name.,,,,,,,,,,,,,
# 4. Item number.,,,,,,,,,,,,,
# 5. Element number.,,,,,,,,,,,,,
# 6. Type.,,,,,,,,,,,,,
# 7. Group.,,,,,,,,,,,,,
# 8. Field name.,,,,,,,,,,,,,
# 9. Field value.,,,,,,,,,,,,,
1545355910,4fbf66356fca48bc2153f92ef0c9ec25,FormC,10,0,testing,m,_REACTION_TIME_,1083876,,,,,
1545355910,4fbf66356fca48bc2153f92ef0c9ec25,Form,5,0,afterScen,NULL,_REACTION_TIME_,3687,,,,,
1545355910,4fbf66356fca48bc2153f92ef0c9ec25,Form,18,0,betweenTest,NULL,_REACTION_TIME_,2894,,,,,
# Columns below this comment are as follows:,,,,,,,,,,,,,
# 1. Time results were received.,,,,,,,,,,,,,
# 2. MD5 hash of participant's IP address.,,,,,,,,,,,,,
# 3. Controller name.,,,,,,,,,,,,,
# 4. Item number.,,,,,,,,,,,,,
# 5. Element number.,,,,,,,,,,,,,
# 6. Type.,,,,,,,,,,,,,
# 7. Group.,,,,,,,,,,,,,
# 8. Field name.,,,,,,,,,,,,,
# 9. Field value.,,,,,,,,,,,,,
# 10. Field text.,,,,,,,,,,,,,
# 11. Field correct text.,,,,,,,,,,,,,
# 12. Field correct.,,,,,,,,,,,,,
# 13. Html.,,,,,,,,,,,,,
# 14. Timeout.,,,,,,,,,,,,,
1545355910,4fbf66356fca48bc2153f92ef0c9ec25,FormC,9,0,testing,m,who,Silver*,Silver group,Silver group,TRUE,scen4-m.html,FALSE
1545355910,4fbf66356fca48bc2153f92ef0c9ec25,FormC,9,0,testing,m,what,secular-school*,a secular school,a secular school,TRUE,scen4-m.html,FALSE
1545355910,4fbf66356fca48bc2153f92ef0c9ec25,FormC,9,0,testing,m,where,Omicronland*,Omicronland,Omicronland,TRUE,scen4-m.html,FALSE
1545355910,4fbf66356fca48bc2153f92ef0c9ec25,FormC,9,0,testing,m,month,January*,January,January,TRUE,scen4-m.html,FALSE
1545355910,4fbf66356fca48bc2153f92ef0c9ec25,FormC,9,0,testing,m,day,1*,1,1,TRUE,scen4-m.html,FALSE
1545355910,4fbf66356fca48bc2153f92ef0c9ec25,FormC,9,0,testing,m,time,9:00*,9:00,9:00,TRUE,scen4-m.html,FALSE
1545355910,4fbf66356fca48bc2153f92ef0c9ec25,FormC,9,0,testing,m,ampm,AM*,AM,AM,TRUE,scen4-m.html,FALSE
# Columns below this comment are as follows:,,,,,,,,,,,,,
# 1. Time results were received.,,,,,,,,,,,,,
# 2. MD5 hash of participant's IP address.,,,,,,,,,,,,,
# 3. Controller name.,,,,,,,,,,,,,
# 4. Item number.,,,,,,,,,,,,,
# 5. Element number.,,,,,,,,,,,,,
# 6. Type.,,,,,,,,,,,,,
# 7. Group.,,,,,,,,,,,,,
# 8. Field name.,,,,,,,,,,,,,
# 9. Field value.,,,,,,,,,,,,,
1545355910,4fbf66356fca48bc2153f92ef0c9ec25,FormC,9,0,testing,m,_REACTION_TIME_,712295,,,,,
1545355910,4fbf66356fca48bc2153f92ef0c9ec25,Form,5,0,afterScen,NULL,_REACTION_TIME_,3593,,,,,
